control_time_s,ros_time_s,mode,flight_phase,state_valid,derivatives_valid,state_age_s,battery_voltage_v,battery_voltage_mv,battery_state,battery_level_percent,battery_age_s,preflight_voltage_v,preflight_voltage_sample_count,preflight_voltage_ready,preflight_voltage_failed,thrust_raw_scale,position_x,position_y,position_z,velocity_x,velocity_y,velocity_z,acceleration_x,acceleration_y,acceleration_z,body_rate_x,body_rate_y,body_rate_z,roll_rad,pitch_rad,yaw_rad,target_x,target_y,target_z,target_yaw_rad,target_jerk_x,target_jerk_y,target_jerk_z,position_error_x,position_error_y,position_error_z,velocity_error_x,velocity_error_y,velocity_error_z,desired_force_x,desired_force_y,desired_force_z,desired_roll_rad,desired_pitch_rad,desired_yaw_rad,attitude_error_x,attitude_error_y,attitude_error_z,computed_rate_x,computed_rate_y,computed_rate_z,omega_c_method,command_rate_x,command_rate_y,command_rate_z,command_thrust_newton,filtered_velocity_x,filtered_velocity_y,filtered_velocity_z,filtered_acceleration_x,filtered_acceleration_y,filtered_acceleration_z,filter_derivatives_valid,mocap_sample_age_s,ekf_position_x,ekf_position_y,ekf_position_z,ekf_velocity_x,ekf_velocity_y,ekf_velocity_z,ekf_acceleration_x,ekf_acceleration_y,ekf_acceleration_z,ekf_state_valid,ekf_state_age_s,ekf_kinematics_weight_effective,control_velocity_x,control_velocity_y,control_velocity_z,mixed_acceleration_x,mixed_acceleration_y,mixed_acceleration_z,control_acceleration_x,control_acceleration_y,control_acceleration_z,mission_time_s,vehicle_id,radio_uri,orbit_phase_rad,formation_state,global_abort_reason,position_integral_x,position_integral_y,position_integral_z,command_raw_thrust,command_raw_thrust_age_s,invalid_reason,ekf_position_error_m,ekf_position_consistent,ekf_kinematics_held,ekf_fault_age_s,ekf_status,formation_acceleration_x,formation_acceleration_y,formation_acceleration_z,formation_acceleration_dot_x,formation_acceleration_dot_y,formation_acceleration_dot_z,formation_law_active,thrust_scale_correction,formation_integral_x,formation_integral_y,formation_integral_z
0.12509357099770568,1789615006.2714677,control,waiting_for_ekf,1,1,0.006678111996734515,4.191202640533447,4191.0,0,90.0,0.09023928600072395,4.191202640533447,1,1,0,1.0682375403901139,0.26951688528060913,-0.01466040313243866,0.046317216008901596,-0.0002628869260661304,0.000686755171045661,-0.00035008290433324873,-0.0018620858900249004,0.02183600887656212,-0.00999157689511776,0.017548484727740288,0.006153718568384647,-0.0073295156471431255,-0.05536879151091031,0.0529744655570229,-2.89564716704172,0.26951688528060913,-0.01466040313243866,0.046317216008901596,-2.89564716704172,0.0,0.0,0.0,0.0,0.0,0.0,-0.00010811717063684022,-5.0052547087745936e-05,-5.39585276562808e-05,0.0,0.0,0.0,-0.05536879151091031,0.0529744655570229,-2.89564716704172,0.0,0.0,0.0,0.0,0.0,0.0,zero,0.0,0.0,0.0,0.0,-0.00010811717063684022,-5.0052547087745936e-05,-5.39585276562808e-05,-0.008729854090309418,-0.00846720509529515,-0.00842596309864714,1,0.00908660888671875,0.26902416348457336,-0.01339834462851286,0.04603315517306328,0.0013826551334051285,0.028008491301463156,0.0015351147763817139,-0.00982280148376973,-0.0033210337894148357,0.0008472216800255776,1,0.025000759997055866,1.0,0.0013826551334051285,0.028008491301463156,0.0015351147763817139,-0.00982280148376973,-0.0033210337894148357,0.0008472216800255776,-0.00982280148376973,-0.0033210337894148357,0.0008472216800255776,0.12509357099770568,2,radio://0/80/2M/E7E7E7E702,0.0,waiting_for_ekf,,0.0,0.0,0.0,0,0.0,,0.0013842893462269023,1,0,0.0,fresh,0.0,0.0,0.0,0.0,0.0,0.0,0,1.066,0.0,0.0,0.0
0.167957124998793,1789615006.3130124,control,waiting_for_ekf,1,1,0.009393236003234051,3.8217010498046875,3821.0,0,20.0,0.10243620901019312,3.8217010498046875,1,1,0,1.0352458102923032,-0.22566457092761993,0.41271883249282837,0.04285041242837906,-0.00047430332051590085,0.0005313387955538929,0.0012891744263470173,-0.011296840384602547,0.01082673855125904,0.03709883242845535,0.02248888462781906,0.005832304712384939,0.005589229986071587,0.005430066716808084,0.014174700528941948,-1.1815234075710508,-0.22566457092761993,0.41271883249282837,0.04285041242837906,-1.1815234075710508,0.0,0.0,0.0,0.0,0.0,0.0,0.00028539163549850887,-6.956027681737723e-05,-0.0003144356350526633,0.0,0.0,0.0,0.005430066716808084,0.014174700528941948,-1.1815234075710508,0.0,0.0,0.0,0.0,0.0,0.0,zero,0.0,0.0,0.0,0.0,0.00028539163549850887,-6.956027681737723e-05,-0.0003144356350526633,-0.0017547450664740405,-0.00874728268893101,-0.018147732545554546,1,0.010271549224853516,-0.22475244104862213,0.41167107224464417,0.04205138608813286,0.012643728559531707,-0.016802475869486123,0.0024662927464085514,-0.007693175843942551,0.0016313855875009597,-0.002085882311094033,1,0.038763632997870445,1.0,0.012643728559531707,-0.016802475869486123,0.0024662927464085514,-0.007693175843942551,0.0016313855875009597,-0.002085882311094033,-0.007693175843942551,0.0016313855875009597,-0.002085882311094033,0.167957124998793,4,radio://0/80/2M/E7E7E7E704,2.0943951023931953,waiting_for_ekf,,0.0,0.0,0.0,0,0.0,,0.001602568421703987,1,0,0.0,fresh,0.0,0.0,0.0,0.0,0.0,0.0,0,0.942,0.0,0.0,0.0
0.2109033929882571,1789615006.356749,control,waiting_for_ekf,1,1,-0.00099792200489901,3.8850440979003906,3885.0,0,40.0,0.11220433199196123,3.8850440979003906,1,1,0,0.9956643740776344,-0.19088247418403625,-0.32618990540504456,0.039174020290374756,0.00065169035224244,0.0008522621938027442,6.18217745795846e-06,0.018868548795580864,0.023738855496048927,0.009728927165269852,0.0016933251172304153,-0.02298879623413086,0.00562204048037529,-0.010414809393867063,-0.038791826734758034,0.9655877371602065,-0.19088247418403625,-0.32618990540504456,0.039174020290374756,0.9655877371602065,0.0,0.0,0.0,0.0,0.0,0.0,-5.043611534847547e-05,-0.0003677033244733727,-0.0004785473624856249,0.0,0.0,0.0,-0.010414809393867063,-0.038791826734758034,0.9655877371602065,0.0,0.0,0.0,0.0,0.0,0.0,zero,0.0,0.0,0.0,0.0,-5.043611534847547e-05,-0.0003677033244733727,-0.0004785473624856249,-0.002040317958991535,0.00917591685339156,-0.0017731882578519175,1,0.0018737316131591797,-0.19024692475795746,-0.32636016607284546,0.03898440673947334,-0.012714229548260332,-0.018640879422481514,-0.0008875238478846853,-0.0031662238917859694,0.0027073421078801204,-0.0022257734821453804,1,0.023634450990357436,1.0,-0.012714229548260332,-0.018640879422481514,-0.0008875238478846853,-0.0031662238917859694,0.0027073421078801204,-0.0022257734821453804,-0.0031662238917859694,0.0027073421078801204,-0.0022257734821453804,0.2109033929882571,5,radio://0/80/2M/E7E7E7E705,4.1887902047863905,waiting_for_ekf,,0.0,0.0,0.0,0,0.0,,0.0006847372245427729,1,0,0.0,fresh,0.0,0.0,0.0,0.0,0.0,0.0,0,0.921,0.0,0.0,0.0
0.2679595160007011,1789615006.4126582,control,waiting_for_ekf,1,1,0.009576004013069905,4.191202640533447,4191.0,0,90.0,0.23310523100371938,4.191202640533447,1,1,0,1.0682375403901139,0.2695036232471466,-0.01468627993017435,0.0462736077606678,-0.0007809647941030562,-0.00012904030154459178,-0.0009921708842739463,-0.020481035113334656,-0.002898185048252344,-0.0188416987657547,0.011712031438946724,-0.008620597422122955,0.0005355228204280138,-0.05542897299280235,0.052503207462832026,-2.8957048431706114,0.2695036232471466,-0.01468627993017435,0.0462736077606678,-2.8957048431706114,0.0,0.0,0.0,0.0,0.0,0.0,0.00017224268417396701,6.593711464448549e-05,-0.00030580531262292183,0.0,0.0,0.0,-0.05542897299280235,0.052503207462832026,-2.8957048431706114,0.0,0.0,0.0,0.0,0.0,0.0,zero,0.0,0.0,0.0,0.0,0.00017224268417396701,6.593711464448549e-05,-0.00030580531262292183,0.015096558149216533,-0.005761270777495686,-0.00395690656151469,1,0.010238885879516602,0.269051194190979,-0.013037539087235928,0.046026561409235,0.0010956958740401526,0.028714281787829393,0.0003574335930269613,0.005592349798711842,-0.006865855589788738,0.002779782011679554,1,0.0017248900112463161,1.0,0.0010956958740401526,0.028714281787829393,0.0003574335930269613,0.005592349798711842,-0.006865855589788738,0.002779782011679554,0.005592349798711842,-0.006865855589788738,0.002779782011679554,0.2679595160007011,2,radio://0/80/2M/E7E7E7E702,0.0,waiting_for_ekf,,0.0,0.0,0.0,0,0.0,,0.0017274461837621074,1,0,0.0,fresh,0.0,0.0,0.0,0.0,0.0,0.0,0,1.066,0.0,0.0,0.0
0.3107674769998994,1789615006.4560995,control,waiting_for_ekf,1,1,0.002378176010097377,3.8217010498046875,3821.0,0,20.0,0.2452465610112995,3.8217010498046875,1,1,0,1.0352458102923032,-0.2256220132112503,0.412689208984375,0.04284566268324852,-7.063188968459144e-05,4.3524152715690434e-05,0.0009583623614162207,-0.004155347123742104,0.0017627240158617496,0.02046279050409794,0.00016105454415082932,0.014830436557531357,-0.0055205076932907104,0.003961600964328175,0.014605410594044408,-1.182277657127425,-0.2256220132112503,0.412689208984375,0.04284566268324852,-1.182277657127425,0.0,0.0,0.0,0.0,0.0,0.0,0.000188497620918807,2.91378434775915e-06,-0.00014015580827137446,0.0,0.0,0.0,0.003961600964328175,0.014605410594044408,-1.182277657127425,0.0,0.0,0.0,0.0,0.0,0.0,zero,0.0,0.0,0.0,0.0,0.000188497620918807,2.91378434775915e-06,-0.00014015580827137446,-0.008572040653652913,-0.007546964952021319,-0.003928052062927083,1,0.0035524368286132812,-0.22491852939128876,0.411873996257782,0.042017772793769836,0.011661381734497062,-0.017919263617076076,0.0024788507892487734,-0.005747585156161906,-0.001426761940023383,0.0030482294614378766,1,0.00970442000834737,1.0,0.011661381734497062,-0.017919263617076076,0.0024788507892487734,-0.005747585156161906,-0.001426761940023383,0.0030482294614378766,-0.005747585156161906,-0.001426761940023383,0.0030482294614378766,0.3107674769998994,4,radio://0/80/2M/E7E7E7E704,2.0943951023931953,waiting_for_ekf,,0.0,0.0,0.0,0,0.0,,0.001358257318643246,1,0,0.0,fresh,0.0,0.0,0.0,0.0,0.0,0.0,0,0.942,0.0,0.0,0.0
0.35367310099536553,1789615006.4995828,control,waiting_for_ekf,1,1,0.005126700998516753,3.8850440979003906,3885.0,0,40.0,0.25497403999906965,3.8850440979003906,1,1,0,0.9956643740776344,-0.19088466465473175,-0.32621368765830994,0.03915148228406906,8.859537774696946e-05,-0.00021020357962697744,-0.0006692948518320918,0.003309563733637333,-0.004155738279223442,-0.016408566385507584,0.00419132225215435,-0.007477583829313517,-0.01291611883789301,-0.01024600560137454,-0.03821684265490506,0.9651488739624782,-0.19088466465473175,-0.32621368765830994,0.03915148228406906,0.9651488739624782,0.0,0.0,0.0,0.0,0.0,0.0,2.859909083251057e-05,1.782764307308379e-05,0.00011739483912743694,0.0,0.0,0.0,-0.01024600560137454,-0.03821684265490506,0.9651488739624782,0.0,0.0,0.0,0.0,0.0,0.0,zero,0.0,0.0,0.0,0.0,2.859909083251057e-05,1.782764307308379e-05,0.00011739483912743694,-0.015776956294406803,-0.0034602223211063197,0.0025192602611551133,1,0.007087230682373047,-0.19022998213768005,-0.3263325095176697,0.03897968679666519,-0.012697881648819687,-0.01847732415995722,-0.0008835150225243963,0.0013347554147147447,-0.00229130197686669,-0.005560837439342679,1,0.005837346994667314,1.0,-0.012697881648819687,-0.01847732415995722,-0.0008835150225243963,0.0013347554147147447,-0.00229130197686669,-0.005560837439342679,0.0013347554147147447,-0.00229130197686669,-0.005560837439342679,0.35367310099536553,5,radio://0/80/2M/E7E7E7E705,4.1887902047863905,waiting_for_ekf,,0.0,0.0,0.0,0,0.0,,0.000687198313361714,1,0,0.0,fresh,0.0,0.0,0.0,0.0,0.0,0.0,0,0.921,0.0,0.0,0.0
0.4107185389875667,1789615006.5554917,control,waiting_for_ekf,1,1,0.008487163999234326,4.191202640533447,4191.0,0,90.0,0.375864253990585,4.191202640533447,1,1,0,1.0682375403901139,0.2695407569408417,-0.014674537815153599,0.04633257910609245,0.00036832713522017,-0.000895905657671392,0.0005538673722185194,0.00786704570055008,-0.03336184099316597,0.017533767968416214,-0.0005525322631001472,0.008148153312504292,-0.003540838835760951,-0.056306756513443475,0.05265960709218682,-2.8957728510926137,0.2695407569408417,-0.014674537815153599,0.04633257910609245,-2.8957728510926137,0.0,0.0,0.0,0.0,0.0,0.0,0.00038042012160484557,0.00010531362113975015,0.0003220241995636009,0.0,0.0,0.0,-0.056306756513443475,0.05265960709218682,-2.8957728510926137,0.0,0.0,0.0,0.0,0.0,0.0,zero,0.0,0.0,0.0,0.0,0.00038042012160484557,0.00010531362113975015,0.0003220241995636009,0.01318355819705827,0.00037077368657550415,0.015140005632660134,1,0.009212493896484375,0.26903703808784485,-0.013252739794552326,0.04602659121155739,0.0017083132216758504,0.0239763089459239,0.0008219861581770003,-0.006166242705943035,-0.024710512245540047,-0.0011529424690280682,1,0.015288942988263443,1.0,0.0017083132216758504,0.0239763089459239,0.0008219861581770003,-0.006166242705943035,-0.024710512245540047,-0.0011529424690280682,-0.006166242705943035,-0.024710512245540047,-0.0011529424690280682,0.4107185389875667,2,radio://0/80/2M/E7E7E7E702,0.0,waiting_for_ekf,,0.0,0.0,0.0,0,0.0,,0.0015391136689186205,1,0,0.0,fresh,0.0,0.0,0.0,0.0,0.0,0.0,0,1.066,0.0,0.0,0.0
0.4536968209868064,1789615006.599663,control,waiting_for_ekf,1,1,0.004701305995695293,3.8217010498046875,3821.0,0,20.0,0.38817590499820653,3.8217010498046875,1,1,0,1.0352458102923032,-0.22564192116260529,0.4127039313316345,0.042830754071474075,-0.0011841253144666553,-0.001053527812473476,0.0008150879293680191,-0.06778274476528168,-0.06390034407377243,0.03537941724061966,0.024434346705675125,-0.05067852512001991,0.009536925703287125,0.004488614672664192,0.013549937787638936,-1.1817608265053858,-0.22564192116260529,0.4127039313316345,0.042830754071474075,-1.1817608265053858,0.0,0.0,0.0,0.0,0.0,0.0,0.00010616458051285847,0.00030141522147409327,0.0002908919660568993,0.0,0.0,0.0,0.004488614672664192,0.013549937787638936,-1.1817608265053858,0.0,0.0,0.0,0.0,0.0,0.0,zero,0.0,0.0,0.0,0.0,0.00010616458051285847,0.00030141522147409327,0.0002908919660568993,-0.002160666439765398,0.00838000785640722,0.0017464598070818706,1,0.00694727897644043,-0.22488857805728912,0.41183507442474365,0.04202119633555412,0.011815139638347235,-0.01688790266054791,0.0024044719529667177,-0.010512355862896127,0.015127110333467099,-0.0051424384391014506,1,0.011805836998973973,1.0,0.011815139638347235,-0.01688790266054791,0.0024044719529667177,-0.010512355862896127,0.015127110333467099,-0.0051424384391014506,-0.010512355862896127,0.015127110333467099,-0.0051424384391014506,0.4536968209868064,4,radio://0/80/2M/E7E7E7E704,2.0943951023931953,waiting_for_ekf,,0.0,0.0,0.0,0,0.0,,0.0014063505561442374,1,0,0.0,fresh,0.0,0.0,0.0,0.0,0.0,0.0,0,0.942,0.0,0.0,0.0
0.496441078998032,1789615006.6416545,control,waiting_for_ekf,1,1,0.007872325004427694,3.8850440979003906,3885.0,0,40.0,0.39774201800173614,3.8850440979003906,1,1,0,0.9956643740776344,-0.19094263017177582,-0.326213002204895,0.039215244352817535,-0.0010683925356715918,-0.0003546919033396989,8.6537329480052e-05,-0.01993492618203163,-0.010239972732961178,-0.001135445199906826,-0.022373104467988014,0.0006738608935847878,-0.015407497063279152,-0.010999030122576412,-0.037665410940312685,0.9646533528550145,-0.19094263017177582,-0.326213002204895,0.039215244352817535,0.9646533528550145,0.0,0.0,0.0,0.0,0.0,0.0,-0.0004158555207988228,-0.0001487306717051703,0.0008742378424537883,0.0,0.0,0.0,-0.010999030122576412,-0.037665410940312685,0.9646533528550145,0.0,0.0,0.0,0.0,0.0,0.0,zero,0.0,0.0,0.0,0.0,-0.0004158555207988228,-0.0001487306717051703,0.0008742378424537883,-0.00185844944697579,-5.9685916973337135e-05,-0.00916909917196783,1,0.008972406387329102,-0.19023114442825317,-0.3263273537158966,0.038974370807409286,-0.011881913342280497,-0.01689858546415668,-0.0012713277275642379,0.0028118714603257754,0.0015970205796813893,-0.001652732285530146,1,0.0018930100050056353,1.0,-0.011881913342280497,-0.01689858546415668,-0.0012713277275642379,0.0028118714603257754,0.0015970205796813893,-0.001652732285530146,0.0028118714603257754,0.0015970205796813893,-0.001652732285530146,0.496441078998032,5,radio://0/80/2M/E7E7E7E705,4.1887902047863905,waiting_for_ekf,,0.0,0.0,0.0,0,0.0,,0.0007598080653572029,1,0,0.0,fresh,0.0,0.0,0.0,0.0,0.0,0.0,0,0.921,0.0,0.0,0.0
0.5536250399891287,1789615006.69844,control,waiting_for_ekf,1,1,0.005024672995205037,4.191202640533447,4191.0,0,90.0,0.518770754992147,4.191202640533447,1,1,0,1.0682375403901139,0.2695702910423279,-0.014654542319476604,0.04634738340973854,0.0007092059822753072,0.00038236903492361307,0.0004497768240980804,0.011928359977900982,0.011285081505775452,0.004590537399053574,-0.006912343204021454,-0.0009329626336693764,-0.003784487722441554,-0.05666666835893588,0.052688363715537145,-2.895494970872757,0.2695702910423279,-0.014654542319476604,0.04634738340973854,-2.895494970872757,0.0,0.0,0.0,0.0,0.0,0.0,-1.5954112085299487e-05,-0.00012524831461191037,0.00018300753899627112,0.0,0.0,0.0,-0.05666666835893588,0.052688363715537145,-2.895494970872757,0.0,0.0,0.0,0.0,0.0,0.0,zero,0.0,0.0,0.0,0.0,-1.5954112085299487e-05,-0.00012524831461191037,0.00018300753899627112,0.009828490120029388,0.0036813912987869526,-0.0002493911494439316,1,0.006110191345214844,0.26900532841682434,-0.01367904432117939,0.04600958153605461,0.00030992101855110824,0.021506139611268245,0.0006663816465961163,-0.0035450450398447353,-0.014472797345645959,-0.002590606773775987,1,0.04161880900210235,1.0,0.00030992101855110824,0.021506139611268245,0.0006663816465961163,-0.0035450450398447353,-0.014472797345645959,-0.002590606773775987,-0.0035450450398447353,-0.014472797345645959,-0.002590606773775987,0.5536250399891287,2,radio://0/80/2M/E7E7E7E702,0.0,waiting_for_ekf,,0.0,0.0,0.0,0,0.0,,0.0011768131622148432,1,0,0.0,fresh,0.0,0.0,0.0,0.0,0.0,0.0,0,1.066,0.0,0.0,0.0
0.5964674449933227,1789615006.7423453,control,waiting_for_ekf,1,1,0.007422410999424756,3.8217010498046875,3821.0,0,20.0,0.5309465290047228,3.8217010498046875,1,1,0,1.0352458102923032,-0.22563201189041138,0.4127625524997711,0.04278407618403435,-1.8669350538402796e-05,0.0012871457729488611,-0.00045471626799553633,0.0008670932147651911,0.03138839825987816,-0.009667813777923584,-0.01585385762155056,0.0086220633238554,-0.002468106336891651,0.003238792940151588,0.014244554852471773,-1.1821421268256538,-0.22563201189041138,0.4127625524997711,0.04278407618403435,-1.1821421268256538,0.0,0.0,0.0,0.0,0.0,0.0,-9.4672388898645e-05,-0.00046724148463748424,1.8277226376319608e-05,0.0,0.0,0.0,0.003238792940151588,0.014244554852471773,-1.1821421268256538,0.0,0.0,0.0,0.0,0.0,0.0,zero,0.0,0.0,0.0,0.0,-9.4672388898645e-05,-0.00046724148463748424,1.8277226376319608e-05,-0.002972204549119051,0.011383597350537983,-0.007371509883262466,1,0.009805679321289062,-0.22477294504642487,0.4116714596748352,0.04204745590686798,0.011359786574054233,-0.017057043155974908,0.002466359115433684,0.003404518248514566,0.005211574913569976,0.00161351656457317,1,0.014702009997563437,1.0,0.011359786574054233,-0.017057043155974908,0.002466359115433684,0.003404518248514566,0.005211574913569976,0.00161351656457317,0.003404518248514566,0.005211574913569976,0.00161351656457317,0.5964674449933227,4,radio://0/80/2M/E7E7E7E704,2.0943951023931953,waiting_for_ekf,,0.0,0.0,0.0,0,0.0,,0.00157196972865136,1,0,0.0,fresh,0.0,0.0,0.0,0.0,0.0,0.0,0,0.942,0.0,0.0,0.0
0.6392893049924169,1789615006.785134,control,waiting_for_ekf,1,1,0.00033197199809364974,3.8850440979003906,3885.0,0,40.0,0.540590243996121,3.8850440979003906,1,1,0,0.9956643740776344,-0.19094613194465637,-0.32615455985069275,0.039193104952573776,-0.0010194210335612297,0.0008336377795785666,-4.795484710484743e-05,-0.01842488907277584,0.015723105520009995,-0.0018951324746012688,0.010832376778125763,0.028300749137997627,-0.0038864086382091045,-0.010203758947859787,-0.036434097323243875,0.9653768340744204,-0.19094613194465637,-0.32615455985069275,0.039193104952573776,0.9653768340744204,0.0,0.0,0.0,0.0,0.0,0.0,-0.00034159231561293915,-8.687999912639814e-05,-0.00011618418627929293,0.0,0.0,0.0,-0.010203758947859787,-0.036434097323243875,0.9653768340744204,0.0,0.0,0.0,0.0,0.0,0.0,zero,0.0,0.0,0.0,0.0,-0.00034159231561293915,-8.687999912639814e-05,-0.00011618418627929293,0.000275377312111163,0.012694037136065907,-0.000660120744995046,1,0.002491474151611328,-0.19021567702293396,-0.326282799243927,0.03897421434521675,-0.012340823320694907,-0.016916060027935297,-0.0011335910904960735,-0.009205310226019166,-0.0038709617136581803,-0.010589726410567777,1,0.0032433949963888153,1.0,-0.012340823320694907,-0.016916060027935297,-0.0011335910904960735,-0.009205310226019166,-0.0038709617136581803,-0.010589726410567777,-0.009205310226019166,-0.0038709617136581803,-0.010589726410567777,0.6392893049924169,5,radio://0/80/2M/E7E7E7E705,4.1887902047863905,waiting_for_ekf,,0.0,0.0,0.0,0,0.0,,0.0007732547010104187,1,0,0.0,fresh,0.0,0.0,0.0,0.0,0.0,0.0,0,0.921,0.0,0.0,0.0
0.6964665829873411,1789615006.8412104,control,waiting_for_ekf,1,1,0.007517955993534997,4.191202640533447,4191.0,0,90.0,0.6616122979903594,4.191202640533447,1,1,0,1.0682375403901139,0.26953595876693726,-0.014688431285321712,0.04631263017654419,-0.0001504988904343918,-0.0002121233264915645,0.00043166219256818295,-0.00636711809784174,-0.007826616987586021,0.01622720994055271,-0.002980099990963936,-0.015423955395817757,-0.0038108602166175842,-0.05608565488669239,0.05180102646680581,-2.8957534834562124,0.26953595876693726,-0.014688431285321712,0.04631263017654419,-2.8957534834562124,0.0,0.0,0.0,0.0,0.0,0.0,0.00024301408741291718,0.00029589051925972955,-0.0005788323857894102,0.0,0.0,0.0,-0.05608565488669239,0.05180102646680581,-2.8957534834562124,0.0,0.0,0.0,0.0,0.0,0.0,zero,0.0,0.0,0.0,0.0,0.00024301408741291718,0.00029589051925972955,-0.0005788323857894102,-0.004723818175173398,0.008524470605982153,0.0010026716978568987,1,0.008102893829345703,0.26903098821640015,-0.013508523814380169,0.04601576179265976,0.0011837516558884458,0.0251179931994971,0.00034705327425415487,0.007937095761727183,-0.00376575292013539,0.008660312878009812,1,0.009505716996500269,1.0,0.0011837516558884458,0.0251179931994971,0.00034705327425415487,0.007937095761727183,-0.00376575292013539,0.008660312878009812,0.007937095761727183,-0.00376575292013539,0.008660312878009812,0.6964665829873411,2,radio://0/80/2M/E7E7E7E702,0.0,waiting_for_ekf,,0.0,0.0,0.0,0,0.0,,0.0013173107963740274,1,0,0.0,fresh,0.0,0.0,0.0,0.0,0.0,0.0,0,1.066,0.0,0.0,0.0
0.7393278999952599,1789615006.884595,control,waiting_for_ekf,1,1,0.0006680060032522306,3.8217010498046875,3821.0,0,20.0,0.6738069840066601,3.8217010498046875,1,1,0,1.0352458102923032,-0.22567352652549744,0.41268301010131836,0.04278210178017616,-0.0012916155392304063,9.862365550361574e-05,-0.0005276233423501253,-0.03560000658035278,0.011257977224886417,-0.007506485562771559,0.008225028403103352,1.4649704098701477e-05,0.004531399812549353,0.0039511118527482195,0.013655042485768659,-1.182039547248901,-0.22567352652549744,0.41268301010131836,0.04278210178017616,-1.182039547248901,0.0,0.0,0.0,0.0,0.0,0.0,9.266279763152528e-05,-0.0004284978019767705,-4.173105148367202e-06,0.0,0.0,0.0,0.0039511118527482195,0.013655042485768659,-1.182039547248901,0.0,0.0,0.0,0.0,0.0,0.0,zero,0.0,0.0,0.0,0.0,9.266279763152528e-05,-0.0004284978019767705,-4.173105148367202e-06,0.008207272493192051,0.002784350823609652,-0.00948144138781243,1,0.0020933151245117188,-0.2248452603816986,0.41175463795661926,0.042031653225421906,0.010895107207370528,-0.017411884406823244,0.0018300496351939329,-0.010348392122057369,-0.005913388305717465,0.00119509412799654,1,0.014679631000035442,1.0,0.010895107207370528,-0.017411884406823244,0.0018300496351939329,-0.010348392122057369,-0.005913388305717465,0.00119509412799654,-0.010348392122057369,-0.005913388305717465,0.00119509412799654,0.7393278999952599,4,radio://0/80/2M/E7E7E7E704,2.0943951023931953,waiting_for_ekf,,0.0,0.0,0.0,0,0.0,,0.001452953088488866,1,0,0.0,fresh,0.0,0.0,0.0,0.0,0.0,0.0,0,0.942,0.0,0.0,0.0
0.782146236000699,1789615006.9275868,control,waiting_for_ekf,1,1,0.0031996320030884817,3.8850440979003906,3885.0,0,40.0,0.6834471750044031,3.8850440979003906,1,1,0,0.9956643740776344,-0.19085295498371124,-0.326198935508728,0.03921613097190857,0.0009027179912663996,5.275121657177806e-05,0.0009447893826290965,0.02122122421860695,0.0022859033197164536,0.020504238083958626,0.011703144758939743,0.04213486611843109,-0.01774587295949459,-0.009537871037626102,-0.03569911872704867,0.9647819785984765,-0.19085295498371124,-0.326198935508728,0.03921613097190857,0.9647819785984765,0.0,0.0,0.0,0.0,0.0,0.0,-1.9773502278176606e-05,8.151458017938433e-06,-3.625032209222648e-05,0.0,0.0,0.0,-0.009537871037626102,-0.03569911872704867,0.9647819785984765,0.0,0.0,0.0,0.0,0.0,0.0,zero,0.0,0.0,0.0,0.0,-1.9773502278176606e-05,8.151458017938433e-06,-3.625032209222648e-05,-0.006152851289760295,-0.010933744377869961,0.010408179351933057,1,0.004999637603759766,-0.19015736877918243,-0.32621264457702637,0.0389874093234539,-0.012492922958857447,-0.016458517697212315,-0.0009629606415267599,0.007399474834867204,0.004584672038452201,0.003927590375432878,1,0.003894909008522518,1.0,-0.012492922958857447,-0.016458517697212315,-0.0009629606415267599,0.007399474834867204,0.004584672038452201,0.003927590375432878,0.007399474834867204,0.004584672038452201,0.003927590375432878,0.782146236000699,5,radio://0/80/2M/E7E7E7E705,4.1887902047863905,waiting_for_ekf,,0.0,0.0,0.0,0,0.0,,0.0007323535341324038,1,0,0.0,fresh,0.0,0.0,0.0,0.0,0.0,0.0,0,0.921,0.0,0.0,0.0
0.8393747219961369,1789615006.9841413,control,waiting_for_ekf,1,1,0.0008320909983012825,4.191202640533447,4191.0,0,90.0,0.8045204369991552,4.191202640533447,1,1,0,1.0682375403901139,0.2695463001728058,-0.01463447604328394,0.04636169224977493,0.0002304825175087899,0.000749034050386399,0.0008319070329889655,0.006077802274376154,0.011043454520404339,0.01388046145439148,0.0009643093217164278,-0.010908138938248158,-0.008019598200917244,-0.05627688217373543,0.0519984688681945,-2.895880136158582,0.2695463001728058,-0.01463447604328394,0.04636169224977493,-2.895880136158582,0.0,0.0,0.0,0.0,0.0,0.0,-0.00020683829671662985,0.0001974825141565785,0.0002522778728098955,0.0,0.0,0.0,-0.05627688217373543,0.0519984688681945,-2.895880136158582,0.0,0.0,0.0,0.0,0.0,0.0,zero,0.0,0.0,0.0,0.0,-0.00020683829671662985,0.0001974825141565785,0.0002522778728098955,-0.0022520202561700856,0.005810468642288271,0.0007226555584393316,1,0.001466989517211914,0.269037127494812,-0.013313123025000095,0.04602593183517456,0.0013094056004416478,0.023229497113989573,0.0008621748996249325,-0.0018504340766364296,-0.03586218872140915,0.0038996423789046165,1,0.023088871006621048,1.0,0.0013094056004416478,0.023229497113989573,0.0008621748996249325,-0.0018504340766364296,-0.03586218872140915,0.0038996423789046165,-0.0018504340766364296,-0.03586218872140915,0.0038996423789046165,0.8393747219961369,2,radio://0/80/2M/E7E7E7E702,0.0,waiting_for_ekf,,0.0,0.0,0.0,0,0.0,,0.0014553232187235214,1,0,0.0,fresh,0.0,0.0,0.0,0.0,0.0,0.0,0,1.066,0.0,0.0,0.0
0.882273452996742,1789615007.027497,control,waiting_for_ekf,1,1,0.0037859879957977682,3.8217010498046875,3821.0,0,20.0,0.8167525370081421,3.8217010498046875,1,1,0,1.0352458102923032,-0.22564107179641724,0.4127367436885834,0.04281837120652199,-6.012199446558952e-05,0.0006219009519554675,0.0005972718354314566,0.0052661169320344925,0.010433809831738472,0.016094541177153587,-0.012418417260050774,-0.0036163812037557364,-0.0031479571480304003,0.0036180821435850565,0.01397370567937052,-1.1821934089177353,-0.22564107179641724,0.4127367436885834,0.04281837120652199,-1.1821934089177353,0.0,0.0,0.0,0.0,0.0,0.0,-0.0004000467354481395,0.00021393214283847804,-6.811944575952835e-05,0.0,0.0,0.0,0.0036180821435850565,0.01397370567937052,-1.1821934089177353,0.0,0.0,0.0,0.0,0.0,0.0,zero,0.0,0.0,0.0,0.0,-0.0004000467354481395,0.00021393214283847804,-6.811944575952835e-05,-0.003566470416357046,-0.013680629041461204,-0.009180852558702412,1,0.0048596858978271484,-0.2247917652130127,0.41166335344314575,0.04205857217311859,0.01142312270745548,-0.01804490490199098,0.0028858910764954283,0.0019406785948375457,-0.00023138602879358856,0.010308528024833055,1,0.015026496999780647,1.0,0.01142312270745548,-0.01804490490199098,0.0028858910764954283,0.0019406785948375457,-0.00023138602879358856,0.010308528024833055,0.0019406785948375457,-0.00023138602879358856,0.010308528024833055,0.882273452996742,4,radio://0/80/2M/E7E7E7E704,2.0943951023931953,waiting_for_ekf,,0.0,0.0,0.0,0,0.0,,0.001565497640616449,1,0,0.0,fresh,0.0,0.0,0.0,0.0,0.0,0.0,0,0.942,0.0,0.0,0.0
0.9251151919888798,1789615007.0702813,control,waiting_for_ekf,1,1,0.004506697994656861,3.8850440979003906,3885.0,0,40.0,0.8264161309925839,3.8850440979003906,1,1,0,0.9956643740776344,-0.1908559948205948,-0.3262324035167694,0.03918798267841339,0.0009068684303201735,-0.0004222325515002012,-0.0004913879092782736,0.017970010638237,-0.004126204177737236,-0.0166843980550766,0.029866794124245644,0.02491070330142975,0.007959375157952309,-0.009318953468783281,-0.03646344170868556,0.9656805506185098,-0.1908559948205948,-0.3262324035167694,0.03918798267841339,0.9656805506185098,0.0,0.0,0.0,0.0,0.0,0.0,-0.0001563117779274928,-0.00031872646777700937,0.0005002436783571917,0.0,0.0,0.0,-0.009318953468783281,-0.03646344170868556,0.9656805506185098,0.0,0.0,0.0,0.0,0.0,0.0,zero,0.0,0.0,0.0,0.0,-0.0001563117779274928,-0.00031872646777700937,0.0005002436783571917,0.011890225667608296,0.0017266589578783912,0.00681725455912984,1,0.006012439727783203,-0.1902286261320114,-0.3263533115386963,0.03897930309176445,-0.012187587978303991,-0.018459226556992864,-0.0007767413714033926,0.002700998930117732,-0.014466642495769668,-0.007182117672731035,1,0.0011639879958238453,1.0,-0.012187587978303991,-0.018459226556992864,-0.0007767413714033926,0.002700998930117732,-0.014466642495769668,-0.007182117672731035,0.002700998930117732,-0.014466642495769668,-0.007182117672731035,0.9251151919888798,5,radio://0/80/2M/E7E7E7E705,4.1887902047863905,waiting_for_ekf,,0.0,0.0,0.0,0,0.0,,0.0006721289988276554,1,0,0.0,fresh,0.0,0.0,0.0,0.0,0.0,0.0,0,0.921,0.0,0.0,0.0
0.9821459759987192,1789615007.1269093,control,waiting_for_ekf,1,1,0.003450415999395773,4.191202640533447,4191.0,0,90.0,0.9472916910017375,4.191202640533447,1,1,0,1.0682375403901139,0.26956233382225037,-0.014610657468438148,0.04633065685629845,0.0005140287103131413,0.001305737067013979,0.0004150763270445168,0.010227782651782036,0.02847013808786869,0.011304564774036407,-0.003463990520685911,0.010302499867975712,0.005996536463499069,-0.05611181035861221,0.05274643167369579,-2.8952033476139865,0.26956233382225037,-0.014610657468438148,0.04633065685629845,-2.8952033476139865,0.0,0.0,0.0,0.0,0.0,0.0,7.882022028768067e-07,0.0001254447968584419,8.299930323086092e-05,0.0,0.0,0.0,-0.05611181035861221,0.05274643167369579,-2.8952033476139865,0.0,0.0,0.0,0.0,0.0,0.0,zero,0.0,0.0,0.0,0.0,7.882022028768067e-07,0.0001254447968584419,8.299930323086092e-05,0.004777321778225058,-0.006840612845222445,-0.003507606405958634,1,0.004308223724365234,0.2690228223800659,-0.01349301915615797,0.04600834846496582,0.0009112963442309984,0.024236964689821852,0.0005024168045004971,0.00029552073838604167,0.021047599485298312,-0.006293803588625487,1,0.006901024011312984,1.0,0.0009112963442309984,0.024236964689821852,0.0005024168045004971,0.00029552073838604167,0.021047599485298312,-0.006293803588625487,0.00029552073838604167,0.021047599485298312,-0.006293803588625487,0.9821459759987192,2,radio://0/80/2M/E7E7E7E702,0.0,waiting_for_ekf,,0.0,0.0,0.0,0,0.0,,0.0012822132008554013,1,0,0.0,fresh,0.0,0.0,0.0,0.0,0.0,0.0,0,1.066,0.0,0.0,0.0
1.0249872239946853,1789615007.1699436,control,waiting_for_ekf,1,1,0.006334894002065994,3.8217010498046875,3821.0,0,20.0,0.9594663080060855,3.8217010498046875,1,1,0,1.0352458102923032,-0.22562247514724731,0.41273632645606995,0.04276861250400543,0.0005697639426216483,0.0008063837885856628,-0.0009419862763024867,0.021738044917583466,0.01880805194377899,-0.024061057716608047,0.011285792104899883,-0.0068178679794073105,-0.008512783795595169,0.004425644964585819,0.013589455979164462,-1.1822616177852527,-0.22562247514724731,0.41273632645606995,0.04276861250400543,-1.1822616177852527,0.0,0.0,0.0,0.0,0.0,0.0,-0.000257909755099683,0.000293295720589859,0.00012420052439947348,0.0,0.0,0.0,0.004425644964585819,0.013589455979164462,-1.1822616177852527,0.0,0.0,0.0,0.0,0.0,0.0,zero,0.0,0.0,0.0,0.0,-0.000257909755099683,0.000293295720589859,0.00012420052439947348,0.01096955974949948,0.011577548962068218,0.003623976306326072,1,0.007151603698730469,-0.22480909526348114,0.4117144048213959,0.04205850511789322,0.011997282754138878,-0.017368762462618842,0.003454991409704837,0.009108313005676157,-0.002213296281218969,0.0012007858301252754,1,0.0008490110049024224,1.0,0.011997282754138878,-0.017368762462618842,0.003454991409704837,0.009108313005676157,-0.002213296281218969,0.0012007858301252754,0.009108313005676157,-0.002213296281218969,0.0012007858301252754,1.0249872239946853,4,radio://0/80/2M/E7E7E7E704,2.0943951023931953,waiting_for_ekf,,0.0,0.0,0.0,0,0.0,,0.0014866617512203383,1,0,0.0,fresh,0.0,0.0,0.0,0.0,0.0,0.0,0,0.942,0.0,0.0,0.0
1.0679634239932057,1789615007.2142563,control,waiting_for_ekf,1,1,-0.0011630410008365288,3.8850440979003906,3885.0,0,40.0,0.9692643629969098,3.8850440979003906,1,1,0,0.9956643740776344,-0.19092245399951935,-0.32618117332458496,0.03917250409722328,-0.0006730810273438692,0.0005228179506957531,-0.0003917286521755159,-0.013987112790346146,0.007976710796356201,-0.004304541274905205,-0.00546391773968935,0.0018906982149928808,0.019295452162623405,-0.010625616398718313,-0.03759122400976358,0.9662677863952498,-0.19092245399951935,-0.32618117332458496,0.03917250409722328,0.9662677863952498,0.0,0.0,0.0,0.0,0.0,0.0,-0.0001797592784335526,7.47105290132066e-05,-0.0005848472382447644,0.0,0.0,0.0,-0.010625616398718313,-0.03759122400976358,0.9662677863952498,0.0,0.0,0.0,0.0,0.0,0.0,zero,0.0,0.0,0.0,0.0,-0.0001797592784335526,7.47105290132066e-05,-0.0005848472382447644,0.005170471014575146,0.009628834406355763,0.009739051836765393,1,0.0018320083618164062,-0.1901579648256302,-0.3262558877468109,0.03899120166897774,-0.011762787343957817,-0.019247407313534772,-0.0008422727842235832,0.006886068620972195,0.0023209855493045765,0.0034076979153781443,1,0.008707893997780047,1.0,-0.011762787343957817,-0.019247407313534772,-0.0008422727842235832,0.006886068620972195,0.0023209855493045765,0.0034076979153781443,0.006886068620972195,0.0023209855493045765,0.0034076979153781443,1.0679634239932057,5,radio://0/80/2M/E7E7E7E705,4.1887902047863905,waiting_for_ekf,,0.0,0.0,0.0,0,0.0,,0.0007892379314059983,1,0,0.0,fresh,0.0,0.0,0.0,0.0,0.0,0.0,0,0.921,0.0,0.0,0.0
1.1250254909973592,1789615007.2697196,control,waiting_for_ekf,1,1,0.006100200000219047,4.191202640533447,4191.0,0,90.0,1.0901712060003774,4.191202640533447,1,1,0,1.0682375403901139,0.2695663869380951,-0.014640896581113338,0.046283066272735596,0.0003756914520636201,0.0005637258291244507,-0.0012818363029509783,0.0038768230006098747,0.009153559803962708,-0.032634347677230835,0.018448159098625183,0.0008619865402579308,-0.006994564086198807,-0.055557573055771727,0.05253546005642401,-2.8957696416271745,0.2695663869380951,-0.014640896581113338,0.046283066272735596,-2.8957696416271745,0.0,0.0,0.0,0.0,0.0,0.0,8.839022512102181e-05,-5.109764677120357e-05,-0.00021597979400447712,0.0,0.0,0.0,-0.055557573055771727,0.05253546005642401,-2.8957696416271745,0.0,0.0,0.0,0.0,0.0,0.0,zero,0.0,0.0,0.0,0.0,8.839022512102181e-05,-5.109764677120357e-05,-0.00021597979400447712,0.014888207257752849,0.008073207069614887,-0.013188495706661727,1,0.006958484649658203,0.26905831694602966,-0.013338352553546429,0.04603858292102814,0.0021096788324912784,0.025789877285059416,0.0014397836636619488,0.011853140977457408,-0.0012636598827515926,0.00930490597830575,1,0.010999297999660484,1.0,0.0021096788324912784,0.025789877285059416,0.0014397836636619488,0.011853140977457408,-0.0012636598827515926,0.00930490597830575,0.011853140977457408,-0.0012636598827515926,0.00930490597830575,1.1250254909973592,2,radio://0/80/2M/E7E7E7E702,0.0,waiting_for_ekf,,0.0,0.0,0.0,0,0.0,,0.0014193407518456255,1,0,0.0,fresh,0.0,0.0,0.0,0.0,0.0,0.0,0,1.066,0.0,0.0,0.0
1.1679602889926173,1789615007.3128662,control,pre_takeoff_hold,1,1,0.009336207003798336,3.8217010498046875,3821.0,0,20.0,1.1024393730040174,3.8217010498046875,1,1,0,1.0352458102923032,-0.22570279240608215,0.41268453001976013,0.04280133917927742,-0.0020102360285818577,-0.0002315506135346368,-0.0003001269360538572,-0.04610437527298927,-0.005168192554265261,-0.010236241854727268,-0.0191630981862545,-0.02149142138659954,0.007859369739890099,0.0029616392020288024,0.01299405599116084,-1.1819281024285928,-0.22559845447540283,0.4126961827278137,0.04282157123088837,-1.1826553744901271,0.0,0.0,0.0,-0.00010433793067932129,-1.1652708053588867e-05,-2.0232051610946655e-05,0.011522279346132702,-0.01758548531589498,0.0034724631932631254,0.0,0.0,0.0,0.0029616392020288024,0.01299405599116084,-1.1819281024285928,0.0,0.0,0.0,0.0,0.0,0.0,zero,0.0,0.0,0.0,0.0,6.294724754107964e-05,-7.627823478742624e-05,0.00041643830594259373,-0.006875351375337653,0.00514698572415297,-0.011298893691814525,1,0.010195016860961914,-0.2247774451971054,0.4116643965244293,0.04205811023712158,0.011522279346132702,-0.01758548531589498,0.0034724631932631254,-0.0012549027211644756,-0.002175155342675629,-0.007877598913176298,1,0.0026599900011206046,1.0,0.011522279346132702,-0.01758548531589498,0.0034724631932631254,-0.0012549027211644756,-0.002175155342675629,-0.007877598913176298,-0.0012549027211644756,-0.002175155342675629,-0.007877598913176298,1.1679602889926173,4,radio://0/80/2M/E7E7E7E704,2.0943951023931953,pre_takeoff_hold,,0.0,0.0,0.0,0,0.0,,0.0015650332475430021,1,0,0.0,fresh,0.0,0.0,0.0,0.0,0.0,0.0,0,0.942,0.0,0.0,0.0
1.210765942989383,1789615007.3570223,control,pre_takeoff_hold,1,1,0.011003530002199113,3.8850440979003906,3885.0,0,40.0,1.112066881993087,3.8850440979003906,1,1,0,0.9956643740776344,-0.190935879945755,-0.3261696994304657,0.03922310471534729,-0.0006576405139639974,0.0005945995217189193,0.0012500029988586903,-0.009428656660020351,0.011011430993676186,0.027961893007159233,-0.01525096409022808,-0.0018986612558364868,-0.01896410807967186,-0.010981426655380665,-0.03785335275791087,0.9643431404419226,-0.1909085065126419,-0.32618632912635803,0.039205458015203476,0.9650901781171279,0.0,0.0,0.0,-2.7373433113098145e-05,1.6629695892333984e-05,1.7646700143814087e-05,-0.012528701445326487,-0.0191371214494208,2.980719006665219e-05,0.0,0.0,0.0,-0.010981426655380665,-0.03785335275791087,0.9643431404419226,0.0,0.0,0.0,0.0,0.0,0.0,zero,0.0,0.0,0.0,0.0,-0.0001554413903852019,2.8171966175307632e-05,0.00014475571441725928,-0.0054929400968847936,0.007022608905524251,-0.007027192353138868,1,0.013443708419799805,-0.19017057120800018,-0.3262506127357483,0.03900076076388359,-0.012528701445326487,-0.0191371214494208,2.980719006665219e-05,0.0027885018832204066,0.015187768520309784,0.0051347000122059635,1,0.008912523000617512,1.0,-0.012528701445326487,-0.0191371214494208,2.980719006665219e-05,0.0027885018832204066,0.015187768520309784,0.0051347000122059635,0.0027885018832204066,0.015187768520309784,0.0051347000122059635,1.210765942989383,5,radio://0/80/2M/E7E7E7E705,4.1887902047863905,pre_takeoff_hold,,0.0,0.0,0.0,0,0.0,,0.0008010500981886991,1,0,0.0,fresh,0.0,0.0,0.0,0.0,0.0,0.0,0,0.921,0.0,0.0,0.0
1.2679887150006834,1789615007.4128008,control,pre_takeoff_hold,1,1,0.00941632001195103,4.191202640533447,4191.0,0,90.0,1.2331344300037017,4.191202640533447,1,1,0,1.0682375403901139,0.2695368826389313,-0.014676269143819809,0.04634479805827141,5.831214366480708e-05,-0.0004390387621242553,0.0004866846138611436,0.006109871435910463,-0.01183333620429039,0.013492926955223083,0.00861950684338808,-0.0043510510586202145,-0.0046818871051073074,-0.055774857665796373,0.05256254460134642,-2.89554216116077,0.2695632576942444,-0.014661469496786594,0.046283792704343796,-2.894952985407516,0.0,0.0,0.0,-2.637505531311035e-05,-1.4799647033214569e-05,6.1005353927612305e-05,0.002697621161362579,0.026480264789114562,0.0014803641266037683,0.0,0.0,0.0,-0.055774857665796373,0.05256254460134642,-2.89554216116077,0.0,0.0,0.0,0.0,0.0,0.0,zero,0.0,0.0,0.0,0.0,-0.00015112542654829858,0.00011345012329251925,-0.0001909391237861681,-0.0055079587542271515,-0.01203496468764558,-0.010965769176540253,1,0.010259866714477539,0.26907631754875183,-0.013190734200179577,0.046036411076784134,0.002697621161362579,0.026480264789114562,0.0014803641266037683,0.002144733479228645,0.017634501073161005,-0.0030996751153644303,1,0.010603037007967941,1.0,0.002697621161362579,0.026480264789114562,0.0014803641266037683,0.002144733479228645,0.017634501073161005,-0.0030996751153644303,0.002144733479228645,0.017634501073161005,-0.0030996751153644303,1.2679887150006834,2,radio://0/80/2M/E7E7E7E702,0.0,pre_takeoff_hold,,0.0,0.0,0.0,0,0.0,,0.0015855714431771968,1,0,0.0,fresh,0.0,0.0,0.0,0.0,0.0,0.0,0,1.066,0.0,0.0,0.0
1.3108473329921253,1789615007.45623,control,pre_takeoff_hold,1,1,0.0007521240040659904,3.8217010498046875,3821.0,0,20.0,1.2453264170035254,3.8217010498046875,1,1,0,1.0352458102923032,-0.22563138604164124,0.4127318859100342,0.0428328812122345,-0.000237784261116758,0.00021013215882703662,0.0005909651517868042,-0.006057922728359699,0.004965091124176979,0.014319758862257004,0.0008030561730265617,-0.006019875407218933,-0.005397476721554995,0.004318573968371909,0.013903740329203556,-1.1821961407756247,-0.22559845447540283,0.4126961827278137,0.04282157123088837,-1.1826553744901271,0.0,0.0,0.0,-3.293156623840332e-05,3.5703182220458984e-05,1.1309981346130371e-05,0.011803750827817497,-0.018863216131666496,0.003091147947179848,0.0,0.0,0.0,0.004318573968371909,0.013903740329203556,-1.1821961407756247,0.0,0.0,0.0,0.0,0.0,0.0,zero,0.0,0.0,0.0,0.0,2.078375919958314e-05,-0.0002195759183861825,-0.00024859085357848836,-0.004796845474993091,-0.011066539915978677,0.0007723118023740469,1,0.0020415782928466797,-0.22477129101753235,0.41163361072540283,0.04206589609384537,0.011803750827817497,-0.018863216131666496,0.003091147947179848,-0.005073643049043659,-0.0035364312895555896,0.0025600723666615436,1,0.0037507959932554513,1.0,0.011803750827817497,-0.018863216131666496,0.003091147947179848,-0.005073643049043659,-0.0035364312895555896,0.0025600723666615436,-0.005073643049043659,-0.0035364312895555896,0.0025600723666615436,1.3108473329921253,4,radio://0/80/2M/E7E7E7E704,2.0943951023931953,pre_takeoff_hold,,0.0,0.0,0.0,0,0.0,,0.0015919290196187374,1,0,0.0,fresh,0.0,0.0,0.0,0.0,0.0,0.0,0,0.942,0.0,0.0,0.0
1.353667740986566,1789615007.4987912,control,pre_takeoff_hold,1,1,0.0026922929973807186,3.8850440979003906,3885.0,0,40.0,1.2549686799902702,3.8850440979003906,1,1,0,0.9956643740776344,-0.19090542197227478,-0.32620733976364136,0.03921351581811905,0.00024448108160868287,0.0003235640178900212,-3.3878328395076096e-05,0.01031658984720707,0.011940493248403072,-0.0034071048721671104,-0.0011021746322512627,-0.0008091013878583908,0.007599833887070417,-0.010470066893735199,-0.03772318313765026,0.9654624606774745,-0.1909085065126419,-0.32618632912635803,0.039205458015203476,0.9650901781171279,0.0,0.0,0.0,3.084540367126465e-06,-2.1010637283325195e-05,8.05780291557312e-06,-0.013564474833877606,-0.018210114958711776,-0.0002942183263013508,0.0,0.0,0.0,-0.010470066893735199,-0.03772318313765026,0.9654624606774745,0.0,0.0,0.0,0.0,0.0,0.0,zero,0.0,0.0,0.0,0.0,4.5643741373571606e-05,-7.08454588271103e-05,-4.3380136179815615e-05,0.0022398192626999014,0.007658999952638637,0.0032955633684099107,1,0.0042455196380615234,-0.19025619328022003,-0.32634228467941284,0.038991592824459076,-0.013564474833877606,-0.018210114958711776,-0.0002942183263013508,-0.01450354835841081,-0.00795740530781458,-0.008419538234564657,1,0.007878001997596584,1.0,-0.013564474833877606,-0.018210114958711776,-0.0002942183263013508,-0.01450354835841081,-0.00795740530781458,-0.008419538234564657,-0.01450354835841081,-0.00795740530781458,-0.008419538234564657,1.353667740986566,5,radio://0/80/2M/E7E7E7E705,4.1887902047863905,pre_takeoff_hold,,0.0,0.0,0.0,0,0.0,,0.0006992552037666198,1,0,0.0,fresh,0.0,0.0,0.0,0.0,0.0,0.0,0,0.921,0.0,0.0,0.0
1.410723037988646,1789615007.5555334,control,pre_takeoff_hold,1,1,0.0011003260005963966,4.191202640533447,4191.0,0,90.0,1.3758687529916642,4.191202640533447,1,1,0,1.0682375403901139,0.26952362060546875,-0.014677715487778187,0.04634901136159897,-0.00036240642657503486,7.05240381648764e-05,0.0004833178245462477,-0.00897449254989624,0.0044398317113518715,0.007391755934804678,0.005595044232904911,-0.010323521681129932,-0.0003030383959412575,-0.055935109730407016,0.051868554005879655,-2.8955082086590425,0.2695632576942444,-0.014661469496786594,0.046283792704343796,-2.894952985407516,0.0,0.0,0.0,-3.9637088775634766e-05,-1.6245990991592407e-05,6.521865725517273e-05,0.0010417457201128977,0.02584187791323002,0.0016010333572807982,0.0,0.0,0.0,-0.055935109730407016,0.051868554005879655,-2.8955082086590425,0.0,0.0,0.0,0.0,0.0,0.0,zero,0.0,0.0,0.0,0.0,0.00019397740301704258,-0.00026000200367417377,0.00015742596763676639,0.01598365503048985,0.011743649469922988,0.012960757310074183,1,0.0025107860565185547,0.2690269947052002,-0.013434860855340958,0.04603694751858711,0.0010417457201128977,0.02584187791323002,0.0016010333572807982,-0.012540608928462193,-0.0008671786801500898,0.008183627511431996,1,0.012812240995117463,1.0,0.0010417457201128977,0.02584187791323002,0.0016010333572807982,-0.012540608928462193,-0.0008671786801500898,0.008183627511431996,-0.012540608928462193,-0.0008671786801500898,0.008183627511431996,1.410723037988646,2,radio://0/80/2M/E7E7E7E702,0.0,pre_takeoff_hold,,0.0,0.0,0.0,0,0.0,,0.0013743030103669136,1,0,0.0,fresh,0.0,0.0,0.0,0.0,0.0,0.0,0,1.066,0.0,0.0,0.0
1.4537790709873661,1789615007.5986497,control,pre_takeoff_hold,1,1,0.0031205699924612418,3.8217010498046875,3821.0,0,20.0,1.3882581549987663,3.8217010498046875,1,1,0,1.0352458102923032,-0.22563910484313965,0.4126826822757721,0.04277339577674866,-0.0001464247761759907,-0.0005671518156304955,-0.0005934868822805583,-0.0021573062986135483,-0.0075916266068816185,-0.00899176113307476,-0.004232143983244896,-0.00047443900257349014,0.0014945282600820065,0.003802026706688289,0.014225618989757379,-1.1817720720491174,-0.22559845447540283,0.4126961827278137,0.04282157123088837,-1.1826553744901271,0.0,0.0,0.0,-4.0650367736816406e-05,-1.3500452041625977e-05,-4.817545413970947e-05,0.012208485200939208,-0.01819269914867406,0.00258479912948636,0.0,0.0,0.0,0.003802026706688289,0.014225618989757379,-1.1817720720491174,0.0,0.0,0.0,0.0,0.0,0.0,zero,0.0,0.0,0.0,0.0,3.712321124808006e-05,-0.00028784965634261276,-0.00015099762822029598,-0.002745607963715739,-0.011577737551300015,-0.0070793998362527,1,0.0046041011810302734,-0.2247936874628067,0.4116985499858856,0.04203982278704643,0.012208485200939208,-0.01819269914867406,0.00258479912948636,0.0030524532558290525,0.008038632570881447,-0.010519739073350796,1,0.0012815259979106486,1.0,0.012208485200939208,-0.01819269914867406,0.00258479912948636,0.0030524532558290525,0.008038632570881447,-0.010519739073350796,0.0030524532558290525,0.008038632570881447,-0.010519739073350796,1.4537790709873661,4,radio://0/80/2M/E7E7E7E704,2.0943951023931953,pre_takeoff_hold,,0.0,0.0,0.0,0,0.0,,0.0014904282076594224,1,0,0.0,fresh,0.0,0.0,0.0,0.0,0.0,0.0,0,0.942,0.0,0.0,0.0
1.4964224769937573,1789615007.641698,control,pre_takeoff_hold,1,1,0.008042283006943762,3.8850440979003906,3885.0,0,40.0,1.3977234159974614,3.8850440979003906,1,1,0,0.9956643740776344,-0.19088096916675568,-0.32621699571609497,0.03919227421283722,0.0005361718940548599,-0.00016354897525161505,0.0005728205433115363,0.007218225859105587,-0.004477933049201965,0.018741589039564133,-0.0016748674679547548,0.022708281874656677,0.00837691593915224,-0.01023693324787246,-0.03679817589475961,0.9658362671371525,-0.1909085065126419,-0.32618632912635803,0.039205458015203476,0.9650901781171279,0.0,0.0,0.0,2.753734588623047e-05,-3.0666589736938477e-05,-1.3183802366256714e-05,-0.012932185498686263,-0.01813341016385397,0.00023219092496150654,0.0,0.0,0.0,-0.01023693324787246,-0.03679817589475961,0.9658362671371525,0.0,0.0,0.0,0.0,0.0,0.0,zero,0.0,0.0,0.0,0.0,0.0004172647012594626,-0.00022998400532092667,-8.401236837818427e-05,0.00044522359594307675,0.008991666046541821,-0.0038081651191302908,1,0.009176969528198242,-0.1902359277009964,-0.3263457715511322,0.03900054469704628,-0.012932185498686263,-0.01813341016385397,0.00023219092496150654,0.005093797335970521,-0.0033964614193736607,-0.0015594295395687065,1,0.008968473004642874,1.0,-0.012932185498686263,-0.01813341016385397,0.00023219092496150654,0.005093797335970521,-0.0033964614193736607,-0.0015594295395687065,0.005093797335970521,-0.0033964614193736607,-0.0015594295395687065,1.4964224769937573,5,radio://0/80/2M/E7E7E7E705,4.1887902047863905,pre_takeoff_hold,,0.0,0.0,0.0,0,0.0,,0.000685143718838494,1,0,0.0,fresh,0.0,0.0,0.0,0.0,0.0,0.0,0,0.921,0.0,0.0,0.0
1.5536638810008299,1789615007.69832,control,pre_takeoff_hold,1,1,0.0029125550063326955,4.191202640533447,4191.0,0,90.0,1.5188095960038481,4.191202640533447,1,1,0,1.0682375403901139,0.2695389688014984,-0.014683476649224758,0.046348247677087784,-0.0003714119957294315,0.00016941485228016973,0.0001703999878372997,-0.011803735047578812,0.00554237887263298,0.00031392648816108704,-0.008885436691343784,-0.014661524444818497,-0.0018331324681639671,-0.05689165364649145,0.05188775398838954,-2.8957965328749684,0.2695632576942444,-0.014661469496786594,0.046283792704343796,-2.894952985407516,0.0,0.0,0.0,-2.428889274597168e-05,-2.2007152438163757e-05,6.445497274398804e-05,0.0009187051026135415,0.025419193321965357,0.0009308215574152873,0.0,0.0,0.0,-0.05689165364649145,0.05188775398838954,-2.8957965328749684,0.0,0.0,0.0,0.0,0.0,0.0,zero,0.0,0.0,0.0,0.0,0.00013793532680749396,2.3955732143163868e-05,0.00016345839712255016,-0.0023522020601842364,-0.00030782520738728683,0.0023497615824627062,1,0.00391387939453125,0.26902005076408386,-0.013497001491487026,0.04601569473743439,0.0009187051026135415,0.025419193321965357,0.0009308215574152873,0.005223507104476357,-0.012198907762753402,-0.008615111248093079,1,0.015400000003864989,1.0,0.0009187051026135415,0.025419193321965357,0.0009308215574152873,0.005223507104476357,-0.012198907762753402,-0.008615111248093079,0.005223507104476357,-0.012198907762753402,-0.008615111248093079,1.5536638810008299,2,radio://0/80/2M/E7E7E7E702,0.0,pre_takeoff_hold,,0.0,0.0,0.0,0,0.0,,0.0013370081103550049,1,0,0.0,fresh,0.0,0.0,0.0,0.0,0.0,0.0,0,1.066,0.0,0.0,0.0
1.5964316569879884,1789615007.741745,control,pre_takeoff_hold,1,1,0.005648189995554276,3.8217010498046875,3821.0,0,20.0,1.5309107409993885,3.8217010498046875,1,1,0,1.0352458102923032,-0.22562628984451294,0.4126831591129303,0.042768534272909164,1.4792502042837441e-05,-0.00026575004449114203,-0.0006251438753679395,-0.0014530974440276623,-0.007242412306368351,-0.009471968747675419,-0.006237149704247713,-0.00185781205072999,-0.009484903886914253,0.0033671891953853113,0.013874988540987725,-1.1827462323969529,-0.22559845447540283,0.4126961827278137,0.04282157123088837,-1.1826553744901271,0.0,0.0,0.0,-2.7835369110107422e-05,-1.3023614883422852e-05,-5.303695797920227e-05,0.011732933274662499,-0.017678745472294304,0.0027094148895297544,0.0,0.0,0.0,0.0033671891953853113,0.013874988540987725,-1.1827462323969529,0.0,0.0,0.0,0.0,0.0,0.0,zero,0.0,0.0,0.0,0.0,0.00013519717957485112,0.00034383521376504117,-0.0003002176689834618,-0.004717615090794624,0.008172788207376307,-0.0038195766417341024,1,0.006830453872680664,-0.22492334246635437,0.4118836224079132,0.04201795905828476,0.011732933274662499,-0.017678745472294304,0.0027094148895297544,-0.0016444855708565337,0.00586175031455488,0.0007850548354506844,1,0.0184872469981201,1.0,0.011732933274662499,-0.017678745472294304,0.0027094148895297544,-0.0016444855708565337,0.00586175031455488,0.0007850548354506844,-0.0016444855708565337,0.00586175031455488,0.0007850548354506844,1.5964316569879884,4,radio://0/80/2M/E7E7E7E704,2.0943951023931953,pre_takeoff_hold,,0.0,0.0,0.0,0,0.0,,0.0013025962966084553,1,0,0.0,fresh,0.0,0.0,0.0,0.0,0.0,0.0,0,0.942,0.0,0.0,0.0
1.639386774986633,1789615007.785096,control,pre_takeoff_hold,1,1,0.01048176598851569,3.8850440979003906,3885.0,0,40.0,1.5406877139903372,3.8850440979003906,1,1,0,0.9956643740776344,-0.19093142449855804,-0.3262113630771637,0.03919440880417824,-0.0014660658780485392,-0.0009386460878886282,-0.0001251468202099204,-0.050491295754909515,-0.03453757241368294,-0.01755487732589245,-0.016562335193157196,0.0011309385299682617,-0.004433156456798315,-0.011533805367634261,-0.0387165270645106,0.9652918263529073,-0.1909085065126419,-0.32618632912635803,0.039205458015203476,0.9650901781171279,0.0,0.0,0.0,-2.2917985916137695e-05,-2.5033950805664062e-05,-1.1049211025238037e-05,-0.012575874302163358,-0.017587411604138962,0.00018325222741342632,0.0,0.0,0.0,-0.011533805367634261,-0.0387165270645106,0.9652918263529073,0.0,0.0,0.0,0.0,0.0,0.0,zero,0.0,0.0,0.0,0.0,-0.0006467308634305004,-0.00014465355041246155,0.000747810647656368,0.0023174463872371316,-0.0016113524880628494,0.040551453409743414,1,0.012456655502319336,-0.1902148723602295,-0.32629159092903137,0.03900079056620598,-0.012575874302163358,-0.017587411604138962,0.00018325222741342632,0.0007230513800207376,0.009147663843516502,0.0012344424103832353,1,0.0034526469971751794,1.0,-0.012575874302163358,-0.017587411604138962,0.00018325222741342632,0.0007230513800207376,0.009147663843516502,0.0012344424103832353,0.0007230513800207376,0.009147663843516502,0.0012344424103832353,1.639386774986633,5,radio://0/80/2M/E7E7E7E705,4.1887902047863905,pre_takeoff_hold,,0.0,0.0,0.0,0,0.0,,0.0007465731693772587,1,0,0.0,fresh,0.0,0.0,0.0,0.0,0.0,0.0,0,0.921,0.0,0.0,0.0
1.6965177879901603,1789615007.8411891,control,pre_takeoff_hold,1,1,0.007939000992337242,4.191202640533447,4191.0,0,90.0,1.6616635029931786,4.191202640533447,1,1,0,1.0682375403901139,0.26954585313796997,-0.014640646986663342,0.046338457614183426,0.00024328553990926594,0.0007968635181896389,0.0007373905973508954,0.007177376188337803,0.01980949193239212,0.01859460584819317,-0.013329027220606804,0.012329543009400368,0.002886673202738166,-0.05663441502629336,0.05322871851408437,-2.89538815081319,0.2695632576942444,-0.014661469496786594,0.046283792704343796,-2.894952985407516,0.0,0.0,0.0,-1.7404556274414062e-05,2.082251012325287e-05,5.466490983963013e-05,0.0002929544861283291,0.027411266265303776,0.0006803635788275406,0.0,0.0,0.0,-0.05663441502629336,0.05322871851408437,-2.89538815081319,0.0,0.0,0.0,0.0,0.0,0.0,zero,0.0,0.0,0.0,0.0,0.0002542472064432296,-0.00021490631348539043,9.751018442126119e-05,0.0043656040183908,-0.0064834883932382795,0.006230112794319555,1,0.008728742599487305,0.26901236176490784,-0.013457092456519604,0.04600897058844566,0.0002929544861283291,0.027411266265303776,0.0006803635788275406,0.00013607180892979238,0.012254331463006782,-0.0059976459577149345,1,0.0064798629900906235,1.0,0.0002929544861283291,0.027411266265303776,0.0006803635788275406,0.00013607180892979238,0.012254331463006782,-0.0059976459577149345,0.00013607180892979238,0.012254331463006782,-0.0059976459577149345,1.6965177879901603,2,radio://0/80/2M/E7E7E7E702,0.0,pre_takeoff_hold,,0.0,0.0,0.0,0,0.0,,0.001339393919310149,1,0,0.0,fresh,0.0,0.0,0.0,0.0,0.0,0.0,0,1.066,0.0,0.0,0.0
1.7393991489952896,1789615007.8849971,control,pre_takeoff_hold,1,1,0.0008658980077598244,3.8217010498046875,3821.0,0,20.0,1.6738782330066897,3.8217010498046875,1,1,0,1.0352458102923032,-0.22563181817531586,0.4127439558506012,0.042786069214344025,0.00017884772387333214,0.002031685784459114,-0.0006345271831378341,0.005953026004135609,0.09299500286579132,-0.02992144413292408,-0.01385146751999855,0.026152784004807472,-0.019379999488592148,0.0036839337273152834,0.015355172189704875,-1.1826805087663324,-0.22559845447540283,0.4126961827278137,0.04282157123088837,-1.1826553744901271,0.0,0.0,0.0,-3.33636999130249e-05,4.7773122787475586e-05,-3.550201654434204e-05,0.012763941766956674,-0.01827098730131784,0.0033522302750352,0.0,0.0,0.0,0.0036839337273152834,0.015355172189704875,-1.1826805087663324,0.0,0.0,0.0,0.0,0.0,0.0,zero,0.0,0.0,0.0,0.0,0.00011102190694264541,0.00022417853819977281,0.00015999922766298379,0.0074530678527746875,0.028840060907910657,-0.013173091208148097,1,0.0022759437561035156,-0.22474494576454163,0.41164204478263855,0.04205837473273277,0.012763941766956674,-0.01827098730131784,0.0033522302750352,0.012815171270104345,-0.005969279550338173,-0.006919597841632807,1,0.014209938002750278,1.0,0.012763941766956674,-0.01827098730131784,0.0033522302750352,0.012815171270104345,-0.005969279550338173,-0.006919597841632807,0.012815171270104345,-0.005969279550338173,-0.006919597841632807,1.7393991489952896,4,radio://0/80/2M/E7E7E7E704,2.0943951023931953,pre_takeoff_hold,,0.0,0.0,0.0,0,0.0,,0.0015906885091866807,1,0,0.0,fresh,0.0,0.0,0.0,0.0,0.0,0.0,0,0.942,0.0,0.0,0.0
1.7822514430008596,1789615007.9273899,control,pre_takeoff_hold,1,1,0.003506220004055649,3.8850440979003906,3885.0,0,40.0,1.6835523820045637,3.8850440979003906,1,1,0,0.9956643740776344,-0.19090640544891357,-0.3262064754962921,0.03921482712030411,0.0004180831601843238,0.00035441486397758126,-0.00046871203812770545,0.017342058941721916,0.011891230940818787,-0.019353369250893593,0.01059512048959732,0.009989415295422077,0.012818061746656895,-0.00985464048379207,-0.037385033360012386,0.965431828939899,-0.1909085065126419,-0.32618632912635803,0.039205458015203476,0.9650901781171279,0.0,0.0,0.0,2.1010637283325195e-06,-2.014636993408203e-05,9.369105100631714e-06,-0.012919548341349462,-0.017987157828832465,-0.0008287582821156518,0.0,0.0,0.0,-0.00985464048379207,-0.037385033360012386,0.965431828939899,0.0,0.0,0.0,0.0,0.0,0.0,zero,0.0,0.0,0.0,0.0,-0.00010210891058906908,0.0009504556685650733,-0.0007040332491067653,-0.007814047490014513,-0.00025356323194464264,-0.010146432467614458,1,0.004807710647583008,-0.19024723768234253,-0.32634201645851135,0.03899151086807251,-0.012919548341349462,-0.017987157828832465,-0.0008287582821156518,0.001450195428649656,-0.0033931763717357463,0.0003148893866805329,1,0.005850514004123397,1.0,-0.012919548341349462,-0.017987157828832465,-0.0008287582821156518,0.001450195428649656,-0.0033931763717357463,0.0003148893866805329,0.001450195428649656,-0.0033931763717357463,0.0003148893866805329,1.7822514430008596,5,radio://0/80/2M/E7E7E7E705,4.1887902047863905,pre_takeoff_hold,,0.0,0.0,0.0,0,0.0,,0.0007090441773516959,1,0,0.0,fresh,0.0,0.0,0.0,0.0,0.0,0.0,0,0.921,0.0,0.0,0.0
1.8393998389947228,1789615007.984073,control,pre_takeoff_hold,1,1,0.010351470002206042,4.191202640533447,4191.0,0,90.0,1.804545553997741,4.191202640533447,1,1,0,1.0682375403901139,0.2695640027523041,-0.014632628299295902,0.04635472968220711,0.0007265650201588869,0.0004819160676561296,0.0009235288598574698,0.012454800307750702,0.006539932917803526,0.016766643151640892,-0.005372581072151661,0.0004001529887318611,-0.0033249957486987114,-0.05655821360136613,0.052295425265497734,-2.8954491966555596,0.2695632576942444,-0.014661469496786594,0.046283792704343796,-2.894952985407516,0.0,0.0,0.0,7.450580596923828e-07,2.884119749069214e-05,7.093697786331177e-05,-0.00010806147316067417,0.025477027052108664,0.00025729957232640833,0.0,0.0,0.0,-0.05655821360136613,0.052295425265497734,-2.8954491966555596,0.0,0.0,0.0,0.0,0.0,0.0,zero,0.0,0.0,0.0,0.0,0.00027518668195445587,0.00022378667529203986,0.00018407208555587155,0.01319483422202303,0.004034582658481813,0.004403676321470723,1,0.010970115661621094,0.26900407671928406,-0.013627867214381695,0.04600071907043457,-0.00010806147316067417,0.025477027052108664,0.00025729957232640833,-0.0035786613437140823,-0.017014666051605717,-0.0035108395780900315,1,0.011406133999116719,1.0,-0.00010806147316067417,0.025477027052108664,0.00025729957232640833,-0.0035786613437140823,-0.017014666051605717,-0.0035108395780900315,-0.0035786613437140823,-0.017014666051605717,-0.0035108395780900315,1.8393998389947228,2,radio://0/80/2M/E7E7E7E702,0.0,pre_takeoff_hold,,0.0,0.0,0.0,0,0.0,,0.001203488892121185,1,0,0.0,fresh,0.0,0.0,0.0,0.0,0.0,0.0,0,1.066,0.0,0.0,0.0
1.8821722459979355,1789615008.027107,control,pre_takeoff_hold,1,1,0.0018536260031396523,3.8217010498046875,3821.0,0,20.0,1.8166513300093357,3.8217010498046875,1,1,0,1.0352458102923032,-0.22563059628009796,0.41275811195373535,0.042861584573984146,-9.843090083450079e-05,0.0010729879140853882,0.001000349991954863,-0.004723509773612022,0.0181061252951622,0.01746184565126896,0.00346211320720613,0.011627028696238995,-0.00884735956788063,0.00398120846245411,0.014912547065135659,-1.1825049841075277,-0.22559845447540283,0.4126961827278137,0.04282157123088837,-1.1826553744901271,0.0,0.0,0.0,-3.2141804695129395e-05,6.192922592163086e-05,4.001334309577942e-05,0.012339978613209696,-0.018226194261640478,0.003943479834616534,0.0,0.0,0.0,0.00398120846245411,0.014912547065135659,-1.1825049841075277,0.0,0.0,0.0,0.0,0.0,0.0,zero,0.0,0.0,0.0,0.0,-2.0603454672734147e-05,6.612033714791237e-06,-6.278148495540161e-05,-0.010625615421757028,0.007664803328501251,0.010754691060896505,1,0.0029621124267578125,-0.2249198853969574,0.41188114881515503,0.04202345758676529,0.012339978613209696,-0.018226194261640478,0.003943479834616534,0.00042660103460178116,0.0023376248575040872,0.0018254250256063984,1,0.005369354999857023,1.0,0.012339978613209696,-0.018226194261640478,0.003943479834616534,0.00042660103460178116,0.0023376248575040872,0.0018254250256063984,0.00042660103460178116,0.0023376248575040872,0.0018254250256063984,1.8821722459979355,4,radio://0/80/2M/E7E7E7E704,2.0943951023931953,pre_takeoff_hold,,0.0,0.0,0.0,0,0.0,,0.0014059271505123044,1,0,0.0,fresh,0.0,0.0,0.0,0.0,0.0,0.0,0,0.942,0.0,0.0,0.0
1.9249881389987422,1789615008.0702195,control,pre_takeoff_hold,1,1,0.006139755001640879,3.8850440979003906,3885.0,0,40.0,1.8262890780024463,3.8850440979003906,1,1,0,0.9956643740776344,-0.19087570905685425,-0.32619303464889526,0.039188921451568604,0.0003024498582817614,0.00047751073725521564,9.360816329717636e-05,0.0032857204787433147,0.01263282261788845,0.00850515067577362,0.012002839706838131,0.02114066109061241,0.011363831348717213,-0.009714330746940725,-0.03687301926208483,0.9659486937955878,-0.1909085065126419,-0.32618632912635803,0.039205458015203476,0.9650901781171279,0.0,0.0,0.0,3.279745578765869e-05,-6.705522537231445e-06,-1.6536563634872437e-05,-0.012795186995179522,-0.016944705100377967,-0.0008577854381193335,0.0,0.0,0.0,-0.009714330746940725,-0.03687301926208483,0.9659486937955878,0.0,0.0,0.0,0.0,0.0,0.0,zero,0.0,0.0,0.0,0.0,-6.0822114092492935e-05,-9.294872597892681e-05,-8.82550766507766e-05,-0.00020025609563841827,-0.01478733838063662,0.0016205432739791305,1,0.0077457427978515625,-0.19024333357810974,-0.32631707191467285,0.03897583857178688,-0.012795186995179522,-0.016944705100377967,-0.0008577854381193335,0.0021166055173528647,0.014905439302886308,-0.012441692572118811,1,0.028775022001354955,1.0,-0.012795186995179522,-0.016944705100377967,-0.0008577854381193335,0.0021166055173528647,0.014905439302886308,-0.012441692572118811,0.0021166055173528647,0.014905439302886308,-0.012441692572118811,1.9249881389987422,5,radio://0/80/2M/E7E7E7E705,4.1887902047863905,pre_takeoff_hold,,0.0,0.0,0.0,0,0.0,,0.0006787402323974883,1,0,0.0,fresh,0.0,0.0,0.0,0.0,0.0,0.0,0,0.921,0.0,0.0,0.0
1.9821535929950187,1789615008.1269698,control,pre_takeoff_hold,1,1,0.0037709159951191396,4.191202640533447,4191.0,0,90.0,1.947299307998037,4.191202640533447,1,1,0,1.0682375403901139,0.26953253149986267,-0.014676611870527267,0.04630658030509949,-0.00018821113917510957,3.510445822030306e-05,1.7066660802811384e-05,-0.005067690275609493,0.003322359174489975,0.002060889732092619,-0.022007033228874207,0.005312176421284676,-0.005443451926112175,-0.05715361295648727,0.05265098321485836,-2.896012224735516,0.2695632576942444,-0.014661469496786594,0.046283792704343796,-2.894952985407516,0.0,0.0,0.0,-3.072619438171387e-05,-1.5142373740673065e-05,2.278760075569153e-05,0.0007327170111603141,0.024391114717240064,-0.0007763239831551747,0.0,0.0,0.0,-0.05715361295648727,0.05265098321485836,-2.896012224735516,0.0,0.0,0.0,0.0,0.0,0.0,zero,0.0,0.0,0.0,0.0,-0.00019336290564098976,0.00030169744970910266,0.0001284658089410774,4.7714045460651124e-05,-0.022405911187772937,-0.019105230832099824,1,0.004461765289306641,0.26901867985725403,-0.01370300818234682,0.045991890132427216,0.0007327170111603141,0.024391114717240064,-0.0007763239831551747,0.012446202808480415,0.0017642636367717118,-0.006116394759048672,1,0.0035035129985772073,1.0,0.0007327170111603141,0.024391114717240064,-0.0007763239831551747,0.012446202808480415,0.0017642636367717118,-0.006116394759048672,0.012446202808480415,0.0017642636367717118,-0.006116394759048672,1.9821535929950187,2,radio://0/80/2M/E7E7E7E702,0.0,pre_takeoff_hold,,0.0,0.0,0.0,0,0.0,,0.001144979282356966,1,0,0.0,fresh,0.0,0.0,0.0,0.0,0.0,0.0,0,1.066,0.0,0.0,0.0
2.024991564991069,1789615008.1701481,control,pre_takeoff_hold,1,1,0.006461201992351562,3.8217010498046875,3821.0,0,20.0,1.9594706490024691,3.8217010498046875,1,1,0,1.0352458102923032,-0.22561897337436676,0.4127151370048523,0.042801376432180405,-3.7644029362127185e-05,-0.004594382829964161,-0.0025158128701150417,-0.010329833254218102,-0.4216748774051666,-0.2099926918745041,0.041046470403671265,-0.017847152426838875,0.01274806261062622,0.004888009604729139,0.014234480379801726,-1.1819309414573578,-0.22559845447540283,0.4126961827278137,0.04282157123088837,-1.1826553744901271,0.0,0.0,0.0,-2.0518898963928223e-05,1.895427703857422e-05,-2.0194798707962036e-05,0.012214845517986673,-0.01822944483796097,0.0029490960047379383,0.0,0.0,0.0,0.004888009604729139,0.014234480379801726,-1.1819309414573578,0.0,0.0,0.0,0.0,0.0,0.0,zero,0.0,0.0,0.0,0.0,0.00010664883164644427,-0.0007129903160821654,-0.0005915237835659501,-0.00863992011167431,-0.04386548925698023,-0.008899625606002399,1,0.007807254791259766,-0.22476471960544586,0.4116409718990326,0.04204931482672691,0.012214845517986673,-0.01822944483796097,0.0029490960047379383,-0.008515902440067087,0.0024144218538988934,-0.012578866493076107,1,0.006031223994796164,1.0,0.012214845517986673,-0.01822944483796097,0.0029490960047379383,-0.008515902440067087,0.0024144218538988934,-0.012578866493076107,-0.008515902440067087,0.0024144218538988934,-0.012578866493076107,2.024991564991069,4,radio://0/80/2M/E7E7E7E704,2.0943951023931953,pre_takeoff_hold,,0.0,0.0,0.0,0,0.0,,0.001564984611641116,1,0,0.0,fresh,0.0,0.0,0.0,0.0,0.0,0.0,0,0.942,0.0,0.0,0.0
2.0679615669941995,1789615008.214745,control,pre_takeoff_hold,1,1,-0.0014995209930930287,3.8850440979003906,3885.0,0,40.0,1.9692625059979036,3.8850440979003906,1,1,0,0.9956643740776344,-0.19091282784938812,-0.3262195885181427,0.039228931069374084,-0.00044880862697027624,0.000370655587175861,0.00010693952208384871,-0.0034742674324661493,0.032757874578237534,-0.0323648527264595,-0.03270915150642395,-0.016566509380936623,0.007131934631615877,-0.010800724355410286,-0.03778148201551059,0.9655105598883925,-0.1909085065126419,-0.32618632912635803,0.039205458015203476,0.9650901781171279,0.0,0.0,0.0,-4.32133674621582e-06,-3.325939178466797e-05,2.347305417060852e-05,-0.012176373411283026,-0.016943716237218895,-0.0013989763200985277,0.0,0.0,0.0,-0.010800724355410286,-0.03778148201551059,0.9655105598883925,0.0,0.0,0.0,0.0,0.0,0.0,zero,0.0,0.0,0.0,0.0,0.00023556015904682126,0.0010006213942879553,-0.0007108181474920841,0.002360074235325839,-0.008164178670833041,-0.003180225796164875,1,0.0012903213500976562,-0.19021274149417877,-0.3262953460216522,0.038979168981313705,-0.012176373411283026,-0.016943716237218895,-0.0013989763200985277,0.004439795862250516,-0.00416319892140925,0.0019601256456479588,1,0.032069748995127156,1.0,-0.012176373411283026,-0.016943716237218895,-0.0013989763200985277,0.004439795862250516,-0.00416319892140925,0.0019601256456479588,0.004439795862250516,-0.00416319892140925,0.0019601256456479588,2.0679615669941995,5,radio://0/80/2M/E7E7E7E705,4.1887902047863905,pre_takeoff_hold,,0.0,0.0,0.0,0,0.0,,0.0007471554086805426,1,0,0.0,fresh,0.0,0.0,0.0,0.0,0.0,0.0,0,0.921,0.0,0.0,0.0
2.1251566619903315,1789615008.2699578,control,pre_takeoff_hold,1,1,0.004813997002202086,4.191202640533447,4191.0,0,90.0,2.0903023769933498,4.191202640533447,1,1,0,1.0682375403901139,0.26955169439315796,-0.014688207767903805,0.04628819599747658,0.0004587666189763695,-0.0004028818802908063,-0.0006826804019510746,0.010573145933449268,-0.008453764021396637,-0.018531687557697296,0.007033894769847393,-0.002065901644527912,0.0015444265445694327,-0.05591957829680021,0.052382842413286175,-2.895509954070565,0.2695632576942444,-0.014661469496786594,0.046283792704343796,-2.894952985407516,0.0,0.0,0.0,-1.1563301086425781e-05,-2.6738271117210388e-05,4.403293132781982e-06,0.001531246732832203,0.02567692168019455,-0.00045587252529372623,0.0,0.0,0.0,-0.05591957829680021,0.052382842413286175,-2.895509954070565,0.0,0.0,0.0,0.0,0.0,0.0,zero,0.0,0.0,0.0,0.0,0.00019559977729316855,0.00016227671795217958,-7.471477799621344e-05,0.0009304369160022574,-0.012030602480250521,0.012856515818550986,1,0.005895376205444336,0.2690158486366272,-0.013730000704526901,0.04599496349692345,0.001531246732832203,0.02567692168019455,-0.00045587252529372623,0.00047782639207670323,0.04645058215258011,-0.006539654820705076,1,0.01892262299952563,1.0,0.001531246732832203,0.02567692168019455,-0.00045587252529372623,0.00047782639207670323,0.04645058215258011,-0.006539654820705076,0.00047782639207670323,0.04645058215258011,-0.006539654820705076,2.1251566619903315,2,radio://0/80/2M/E7E7E7E702,0.0,pre_takeoff_hold,,0.0,0.0,0.0,0,0.0,,0.0011363435882153143,1,0,0.0,fresh,0.0,0.0,0.0,0.0,0.0,0.0,0,1.066,0.0,0.0,0.0
2.1678482930001337,1789615008.3129387,control,pre_takeoff_hold,1,1,0.029333213009522296,3.8217010498046875,3821.0,0,20.0,2.102327377011534,3.8217010498046875,1,1,0,1.0352458102923032,-0.22563737630844116,0.41268181800842285,0.042807213962078094,0.0001687811891315505,-0.0015485793119296432,0.0003723842091858387,0.008156901225447655,-0.05364285781979561,0.013883275911211967,-0.03486042469739914,-0.020319346338510513,-0.03639805689454079,0.0033266859187503807,0.013201408068335701,-1.1827615376040546,-0.22559845447540283,0.4126961827278137,0.04282157123088837,-1.1826553744901271,0.0,0.0,0.0,-3.892183303833008e-05,-1.436471939086914e-05,-1.4357268810272217e-05,0.01180234816594493,-0.01799390539126417,0.0022671944754772515,0.0,0.0,0.0,0.0033266859187503807,0.013201408068335701,-1.1827615376040546,0.0,0.0,0.0,0.0,0.0,0.0,zero,0.0,0.0,0.0,0.0,-5.809772238403986e-05,-0.00038733694124056797,-0.00039558099131363017,0.02662296143356964,0.03594932254025153,0.020352057086266005,1,0.030330181121826172,-0.22481608390808105,0.41172435879707336,0.04203535243868828,0.01180234816594493,-0.01799390539126417,0.0022671944754772515,-0.0026989211371824073,0.014783345587045974,-0.006185365380075034,1,0.008608039002865553,1.0,0.01180234816594493,-0.01799390539126417,0.0022671944754772515,-0.0026989211371824073,0.014783345587045974,-0.006185365380075034,-0.0026989211371824073,0.014783345587045974,-0.006185365380075034,2.1678482930001337,4,radio://0/80/2M/E7E7E7E704,2.0943951023931953,pre_takeoff_hold,,0.0,0.0,0.0,0,0.0,,0.0014788575183488425,1,0,0.0,fresh,0.0,0.0,0.0,0.0,0.0,0.0,0,0.942,0.0,0.0,0.0
2.2106959209922934,1789615008.3561153,control,pre_takeoff_hold,1,1,0.07175712300522719,3.8850440979003906,3885.0,0,40.0,2.1119968599959975,3.8850440979003906,1,1,0,0.9956643740776344,-0.19091178476810455,-0.3262307941913605,0.039214279502630234,-0.0005424064584076405,-0.0005184535402804613,0.0002845606650225818,-0.014128349721431732,-0.015105422586202621,0.00500989705324173,0.026340194046497345,0.03804952651262283,-0.019091259688138962,-0.009654175077817033,-0.036785212307485445,0.9650691311394811,-0.1909085065126419,-0.32618632912635803,0.039205458015203476,0.9650901781171279,0.0,0.0,0.0,-3.2782554626464844e-06,-4.4465065002441406e-05,8.821487426757812e-06,-0.012780790754764782,-0.018473032069594986,0.0001020283239718392,0.0,0.0,0.0,-0.009654175077817033,-0.036785212307485445,0.9650691311394811,0.0,0.0,0.0,0.0,0.0,0.0,zero,0.0,0.0,0.0,0.0,-0.00017531421802616305,0.00033146874392065285,-0.00013680132503454814,-0.010625163424640136,-0.00760929629956506,0.0220840644707278,1,0.07350683212280273,-0.19074171781539917,-0.3270876407623291,0.03900860622525215,-0.012780790754764782,-0.018473032069594986,0.0001020283239718392,-0.0038979595158651257,-0.00852727890984633,0.009248066886973475,1,0.015791678000823595,1.0,-0.012780790754764782,-0.018473032069594986,0.0001020283239718392,-0.0038979595158651257,-0.00852727890984633,0.009248066886973475,-0.0038979595158651257,-0.00852727890984633,0.009248066886973475,2.2106959209922934,5,radio://0/80/2M/E7E7E7E705,4.1887902047863905,pre_takeoff_hold,,0.0,0.0,0.0,0,0.0,,0.0008974465508377825,1,0,0.0,fresh,0.0,0.0,0.0,0.0,0.0,0.0,0,0.921,0.0,0.0,0.0
2.267890642993734,1789615008.4126358,control,pre_takeoff_hold,1,1,0.1292553079983918,4.191202640533447,4191.0,0,90.0,2.2330363579967525,4.191202640533447,1,1,0,1.0682375403901139,0.2695261836051941,-0.014632867649197578,0.046308230608701706,-0.0004973069881089032,0.0011082969140261412,-0.00026703785988502204,-0.021261271089315414,0.03425312414765358,-0.008860908448696136,0.013909806497395039,-0.01832137443125248,0.019921978935599327,-0.05614443589638505,0.05186181617659498,-2.894951885155767,0.2695632576942444,-0.014661469496786594,0.046283792704343796,-2.894952985407516,0.0,0.0,0.0,-3.707408905029297e-05,2.860184758901596e-05,2.4437904357910156e-05,0.0012497770891810275,0.03491101906016976,-0.0010246383751778274,0.0,0.0,0.0,-0.05614443589638505,0.05186181617659498,-2.894951885155767,0.0,0.0,0.0,0.0,0.0,0.0,zero,0.0,0.0,0.0,0.0,0.00028389997033313936,-9.320973153952722e-05,-4.065556886392943e-05,0.005015333596959827,-0.014822457595220082,0.000531445568605053,1,0.13002729415893555,0.26916438341140747,-0.01027008518576622,0.045882489532232285,0.0012497770891810275,0.03491101906016976,-0.0010246383751778274,-0.0021496728038397986,0.09863550359038387,-0.0033131755608239244,1,0.010910740995313972,1.0,0.0012497770891810275,0.03491101906016976,-0.0010246383751778274,-0.0021496728038397986,0.09863550359038387,-0.0033131755608239244,-0.0021496728038397986,0.09863550359038387,-0.0033131755608239244,2.267890642993734,2,radio://0/80/2M/E7E7E7E702,0.0,pre_takeoff_hold,,0.0,0.0,0.0,0,0.0,,0.00439841172102403,1,0,0.0,fresh,0.0,0.0,0.0,0.0,0.0,0.0,0,1.066,0.0,0.0,0.0
2.3108001590007916,1789615008.4556775,control,pre_takeoff_hold,1,1,0.1722850790101802,3.8217010498046875,3821.0,0,20.0,2.2452792430121917,3.8217010498046875,1,1,0,1.0352458102923032,-0.22563737630844116,0.41268181800842285,0.042807213962078094,0.0001687811891315505,-0.0015485793119296432,0.0003723842091858387,0.008156901225447655,-0.05364285781979561,0.013883275911211967,-0.03486042469739914,-0.020319346338510513,-0.03639805689454079,0.0033266859187503807,0.013201408068335701,-1.1827615376040546,-0.22559845447540283,0.4126961827278137,0.04282157123088837,-1.1826553744901271,0.0,0.0,0.0,-3.892183303833008e-05,-1.436471939086914e-05,-1.4357268810272217e-05,0.014439377417520998,-0.021669268064975072,0.0033852681791240666,0.0,0.0,0.0,0.0033266859187503807,0.013201408068335701,-1.1827615376040546,0.0,0.0,0.0,0.0,0.0,0.0,zero,0.0,0.0,0.0,0.0,-5.809772238403986e-05,-0.00038733694124056797,-0.00039558099131363017,0.02662296143356964,0.03594932254025153,0.020352057086266005,1,0.17306900024414062,-0.2228887528181076,0.4088450074195862,0.04249186813831329,0.014439377417520998,-0.021669268064975072,0.0033852681791240666,0.025178997665154284,-0.04621819332745614,-0.0017004248232457254,1,0.001280303011299111,1.0,0.014439377417520998,-0.021669268064975072,0.0033852681791240666,0.025178997665154284,-0.04621819332745614,-0.0017004248232457254,0.025178997665154284,-0.04621819332745614,-0.0017004248232457254,2.3108001590007916,4,radio://0/80/2M/E7E7E7E704,2.0943951023931953,pre_takeoff_hold,,0.0,0.0,0.0,0,0.0,,0.004730273731486215,1,0,0.0,fresh,0.0,0.0,0.0,0.0,0.0,0.0,0,0.942,0.0,0.0,0.0
2.353667900999426,1789615008.4988787,control,pre_takeoff_hold,1,1,0.2147291030123597,3.8850440979003906,3885.0,0,40.0,2.25496884000313,3.8850440979003906,1,1,0,0.9956643740776344,-0.19091178476810455,-0.3262307941913605,0.039214279502630234,-0.0005424064584076405,-0.0005184535402804613,0.0002845606650225818,-0.014128349721431732,-0.015105422586202621,0.00500989705324173,0.026340194046497345,0.03804952651262283,-0.019091259688138962,-0.009654175077817033,-0.036785212307485445,0.9650691311394811,-0.1909085065126419,-0.32618632912635803,0.039205458015203476,0.9650901781171279,0.0,0.0,0.0,-3.2782554626464844e-06,-4.4465065002441406e-05,8.821487426757812e-06,-0.015906302162748624,-0.024249761620460587,0.0008046564882502624,0.0,0.0,0.0,-0.009654175077817033,-0.036785212307485445,0.9650691311394811,0.0,0.0,0.0,0.0,0.0,0.0,zero,0.0,0.0,0.0,0.0,-0.00017531421802616305,0.00033146874392065285,-0.00013680132503454814,-0.010625163424640136,-0.00760929629956506,0.0220840644707278,1,0.21627020835876465,-0.19287750124931335,-0.3302864134311676,0.039093054831027985,-0.015906302162748624,-0.024249761620460587,0.0008046564882502624,-0.016492898654345303,-0.03927544320330913,0.00788588130660497,1,0.007578967008157633,1.0,-0.015906302162748624,-0.024249761620460587,0.0008046564882502624,-0.016492898654345303,-0.03927544320330913,0.00788588130660497,-0.016492898654345303,-0.03927544320330913,0.00788588130660497,2.353667900999426,5,radio://0/80/2M/E7E7E7E705,4.1887902047863905,pre_takeoff_hold,,0.0,0.0,0.0,0,0.0,,0.004508523497088014,1,0,0.0,fresh,0.0,0.0,0.0,0.0,0.0,0.0,0,0.921,0.0,0.0,0.0
2.4108267999981763,1789615008.55557,control,pre_takeoff_hold,1,1,0.27219146500283387,4.191202640533447,4191.0,0,90.0,2.3759725150011946,4.191202640533447,1,1,0,1.0682375403901139,0.2695261836051941,-0.014632867649197578,0.046308230608701706,-0.0004973069881089032,0.0011082969140261412,-0.00026703785988502204,-0.021261271089315414,0.03425312414765358,-0.008860908448696136,0.013909806497395039,-0.01832137443125248,0.019921978935599327,-0.05614443589638505,0.05186181617659498,-2.894951885155767,0.2695632576942444,-0.014661469496786594,0.046283792704343796,-2.894952985407516,0.0,0.0,0.0,-3.707408905029297e-05,2.860184758901596e-05,2.4437904357910156e-05,-0.0008830692014088987,0.047029407131411766,-0.0013512737724591395,0.0,0.0,0.0,-0.05614443589638505,0.05186181617659498,-2.894951885155767,0.0,0.0,0.0,0.0,0.0,0.0,zero,0.0,0.0,0.0,0.0,0.00028389997033313936,-9.320973153952722e-05,-4.065556886392943e-05,0.005015333596959827,-0.014822457595220082,0.000531445568605053,1,0.2729613780975342,0.26915743947029114,-0.00395653210580349,0.04569866880774498,-0.0008830692014088987,0.047029407131411766,-0.0013512737724591395,-0.027202417292329435,0.0790308950716118,0.0006364928605742961,1,0.013203851005528122,1.0,-0.0008830692014088987,0.047029407131411766,-0.0013512737724591395,-0.027202417292329435,0.0790308950716118,0.0006364928605742961,-0.027202417292329435,0.0790308950716118,0.0006364928605742961,2.4108267999981763,2,radio://0/80/2M/E7E7E7E702,0.0,pre_takeoff_hold,,0.0,0.0,0.0,0,0.0,,0.010700078432485945,1,0,0.0,fresh,0.0,0.0,0.0,0.0,0.0,0.0,0,1.066,0.0,0.0,0.0
2.453773902991088,1789615008.598673,control,pre_takeoff_hold,1,1,0.3152588230004767,3.8217010498046875,3821.0,0,20.0,2.3882529870024882,3.8217010498046875,1,1,0,1.0352458102923032,-0.22563737630844116,0.41268181800842285,0.042807213962078094,0.0001687811891315505,-0.0015485793119296432,0.0003723842091858387,0.008156901225447655,-0.05364285781979561,0.013883275911211967,-0.03486042469739914,-0.020319346338510513,-0.03639805689454079,0.0033266859187503807,0.013201408068335701,-1.1827615376040546,-0.22559845447540283,0.4126961827278137,0.04282157123088837,-1.1826553744901271,0.0,0.0,0.0,-3.892183303833008e-05,-1.436471939086914e-05,-1.4357268810272217e-05,0.019874610032607,-0.02751036277088142,0.004310363296388262,0.0,0.0,0.0,0.0033266859187503807,0.013201408068335701,-1.1827615376040546,0.0,0.0,0.0,0.0,0.0,0.0,zero,0.0,0.0,0.0,0.0,-5.809772238403986e-05,-0.00038733694124056797,-0.00039558099131363017,0.02662296143356964,0.03594932254025153,0.020352057086266005,1,0.31606459617614746,-0.22026416659355164,0.4051309823989868,0.043062515556812286,0.019874610032607,-0.02751036277088142,0.004310363296388262,0.03765940099590297,-0.03798115658009876,0.009267896135508182,1,0.013486456999089569,1.0,0.019874610032607,-0.02751036277088142,0.004310363296388262,0.03765940099590297,-0.03798115658009876,0.009267896135508182,0.03765940099590297,-0.03798115658009876,0.009267896135508182,2.453773902991088,4,radio://0/80/2M/E7E7E7E704,2.0943951023931953,pre_takeoff_hold,,0.0,0.0,0.0,0,0.0,,0.009271012886690659,1,0,0.0,fresh,0.0,0.0,0.0,0.0,0.0,0.0,0,0.942,0.0,0.0,0.0
2.496461842994904,1789615008.6422641,control,pre_takeoff_hold,1,1,0.35752304500783794,3.8850440979003906,3885.0,0,40.0,2.3977627819986083,3.8850440979003906,1,1,0,0.9956643740776344,-0.19091178476810455,-0.3262307941913605,0.039214279502630234,-0.0005424064584076405,-0.0005184535402804613,0.0002845606650225818,-0.014128349721431732,-0.015105422586202621,0.00500989705324173,0.026340194046497345,0.03804952651262283,-0.019091259688138962,-0.009654175077817033,-0.036785212307485445,0.9650691311394811,-0.1909085065126419,-0.32618632912635803,0.039205458015203476,0.9650901781171279,0.0,0.0,0.0,-3.2782554626464844e-06,-4.4465065002441406e-05,8.821487426757812e-06,-0.019171975987326475,-0.02938150617520928,0.0008148493534364098,0.0,0.0,0.0,-0.009654175077817033,-0.036785212307485445,0.9650691311394811,0.0,0.0,0.0,0.0,0.0,0.0,zero,0.0,0.0,0.0,0.0,-0.00017531421802616305,0.00033146874392065285,-0.00013680132503454814,-0.010625163424640136,-0.00760929629956506,0.0220840644707278,1,0.35965561866760254,-0.1953200101852417,-0.3340270221233368,0.03920210525393486,-0.019171975987326475,-0.02938150617520928,0.0008148493534364098,-0.025346668471480503,-0.03833774923356893,-0.00019406562750212992,1,0.008552034007152542,1.0,-0.019171975987326475,-0.02938150617520928,0.0008148493534364098,-0.025346668471480503,-0.03833774923356893,-0.00019406562750212992,-0.025346668471480503,-0.03833774923356893,-0.00019406562750212992,2.496461842994904,5,radio://0/80/2M/E7E7E7E705,4.1887902047863905,pre_takeoff_hold,,0.0,0.0,0.0,0,0.0,,0.008956214016421951,1,0,0.0,fresh,0.0,0.0,0.0,0.0,0.0,0.0,0,0.921,0.0,0.0,0.0
2.553982981000445,1789615008.698703,control,pre_takeoff_hold,1,0,0.002391975009231828,4.191202640533447,4191.0,0,90.0,2.519128696003463,4.191202640533447,1,1,0,1.0682375403901139,0.2695275545120239,-0.014688115566968918,0.046280909329652786,-0.04717431217432022,0.018072716891765594,-0.06683163344860077,0.0,0.0,0.0,1.5434540510177612,0.22540703415870667,-0.04405008256435394,-0.056235940940682266,0.052988081268606754,-2.89576770101428,0.2695632576942444,-0.014661469496786594,0.046283792704343796,-2.894952985407516,0.0,0.0,0.0,-3.5703182220458984e-05,-2.6646070182323456e-05,-2.8833746910095215e-06,-0.004308107022971609,0.05640639934254696,-0.000810499243991669,0.0,0.0,0.0,-0.056235940940682266,0.052988081268606754,-2.89576770101428,0.0,0.0,0.0,0.0,0.0,0.0,zero,0.0,0.0,0.0,0.0,0.0,0.0,0.0,0.0,0.0,0.0,0,0.0029404163360595703,0.2687516510486603,0.002599804662168026,0.04558345675468445,-0.004308107022971609,0.05640639934254696,-0.000810499243991669,-0.01773573854451084,0.0474495919245005,0.006990473385910542,1,0.047190137003781274,1.0,-0.004308107022971609,0.05640639934254696,-0.000810499243991669,-0.01773573854451084,0.0474495919245005,0.006990473385910542,-0.01773573854451084,0.0474495919245005,0.006990473385910542,2.553982981000445,2,radio://0/80/2M/E7E7E7E702,0.0,pre_takeoff_hold,,0.0,0.0,0.0,0,0.0,,0.01731937216321054,1,0,0.0,fresh,0.0,0.0,0.0,0.0,0.0,0.0,0,1.066,0.0,0.0,0.0
2.596461309993174,1789615008.7415645,control,pre_takeoff_hold,1,1,0.007426351003232412,3.8217010498046875,3821.0,0,20.0,2.530940394004574,3.8217010498046875,1,1,0,1.0352458102923032,-0.22562389075756073,0.4127214848995209,0.0427834615111351,0.002304838504642248,-0.014226303435862064,-0.009075399488210678,8.756488800048828,-7.520411014556885,-14.330818176269531,-0.045433614403009415,-0.4077872037887573,-0.0008022356778383255,0.003519098205549309,0.014264856907755875,-1.1820199430158569,-0.22559845447540283,0.4126961827278137,0.04282157123088837,-1.1826553744901271,0.0,0.0,0.0,-2.543628215789795e-05,2.530217170715332e-05,-3.810971975326538e-05,0.01996202510188165,-0.02714733518531247,0.0055555699869840325,0.0,0.0,0.0,0.003519098205549309,0.014264856907755875,-1.1820199430158569,0.0,0.0,0.0,0.0,0.0,0.0,zero,0.0,0.0,0.0,0.0,-0.01047653896840603,-0.015115753552466828,-0.002589848807933067,0.6066483536719712,-0.22964564351516328,-0.41316798434130436,1,0.008826255798339844,-0.22497859597206116,0.41197410225868225,0.042010340839624405,0.01996202510188165,-0.02714733518531247,0.0055555699869840325,-0.0758727313876199,0.11474621415787958,-0.0184546103986878,1,0.017321865001576953,1.0,0.01996202510188165,-0.02714733518531247,0.0055555699869840325,-0.0758727313876199,0.11474621415787958,-0.0184546103986878,-0.0758727313876199,0.11474621415787958,-0.0184546103986878,2.596461309993174,4,radio://0/80/2M/E7E7E7E704,2.0943951023931953,pre_takeoff_hold,,0.0,0.0,0.0,0,0.0,,0.0012540740587130427,1,0,0.0,fresh,0.0,0.0,0.0,0.0,0.0,0.0,0,0.942,0.0,0.0,0.0
2.639308167999843,1789615008.7851264,control,pre_takeoff_hold,1,1,0.0006473460089182481,3.8850440979003906,3885.0,0,40.0,2.5406091070035473,3.8850440979003906,1,1,0,0.9956643740776344,-0.1908913552761078,-0.32619693875312805,0.039164625108242035,-0.0005544904852285981,-0.00033754855394363403,-0.006578504107892513,1.632081389427185,-0.8793426156044006,0.013056072406470776,-0.050747547298669815,-0.015631739050149918,-0.010412751697003841,-0.009928072486146,-0.03778793158917482,0.9654092234979237,-0.1909085065126419,-0.32618632912635803,0.039205458015203476,0.9650901781171279,0.0,0.0,0.0,1.7151236534118652e-05,-1.0609626770019531e-05,-4.083290696144104e-05,-0.005385678994051456,-0.010687535218489601,0.0005592582003147951,0.0,0.0,0.0,-0.009928072486146,-0.03778793158917482,0.9654092234979237,0.0,0.0,0.0,0.0,0.0,0.0,zero,0.0,0.0,0.0,0.0,-0.0012027031316215974,-0.0013941379558418403,-0.013923013806053059,0.06780558698607606,-0.0005063054591921264,0.3372021583810117,1,0.002663135528564453,-0.1900206208229065,-0.32604676485061646,0.03900419920682907,-0.005385678994051456,-0.010687535218489601,0.0005592582003147951,0.23219500014886804,0.3462680274526645,-0.0044445858885482055,1,0.005928253012825735,1.0,-0.005385678994051456,-0.010687535218489601,0.0005592582003147951,0.23219500014886804,0.3462680274526645,-0.0044445858885482055,0.23219500014886804,0.3462680274526645,-0.0044445858885482055,2.639308167999843,5,radio://0/80/2M/E7E7E7E705,4.1887902047863905,pre_takeoff_hold,,0.0,0.0,0.0,0,0.0,,0.0008980351656986941,1,0,0.0,fresh,0.0,0.0,0.0,0.0,0.0,0.0,0,0.921,0.0,0.0,0.0
2.6964323339925613,1789615008.8412154,control,pre_takeoff_hold,1,1,0.008034491998841986,4.191202640533447,4191.0,0,90.0,2.6615780489955796,4.191202640533447,1,1,0,1.0682375403901139,0.2695390284061432,-0.014668780378997326,0.04628598690032959,-0.0007277400582097471,0.0016526241088286042,0.0001110757002606988,0.6893492937088013,0.18205656111240387,2.043457269668579,0.03133604675531387,0.018081214278936386,-0.02172442339360714,-0.055705168958484645,0.05198953445859491,-2.895620714639573,0.2695632576942444,-0.014661469496786594,0.046283792704343796,-2.894952985407516,0.0,0.0,0.0,-2.422928810119629e-05,-7.310882210731506e-06,2.1941959857940674e-06,-0.004822217457462314,0.0067855477970650184,-0.00043203109918209357,0.0,0.0,0.0,-0.055705168958484645,0.05198953445859491,-2.895620714639573,0.0,0.0,0.0,0.0,0.0,0.0,zero,0.0,0.0,0.0,0.0,-0.0011004974248327458,0.0017501376458806958,0.0009608044419170396,0.045895673125726254,-0.05418012924448163,-0.07302193741784548,1,0.008608102798461914,0.26887890696525574,-0.013744543306529522,0.0459921769797802,-0.004822217457462314,0.0067855477970650184,-0.00043203109918209357,-0.010842188961801624,-0.008170979991896369,-0.0018269982271099238,1,8.554400119464844e-05,1.0,-0.004822217457462314,0.0067855477970650184,-0.00043203109918209357,-0.010842188961801624,-0.008170979991896369,-0.0018269982271099238,-0.010842188961801624,-0.008170979991896369,-0.0018269982271099238,2.6964323339925613,2,radio://0/80/2M/E7E7E7E702,0.0,pre_takeoff_hold,,0.0,0.0,0.0,0,0.0,,0.0011731575990703133,1,0,0.0,fresh,0.0,0.0,0.0,0.0,0.0,0.0,0,1.066,0.0,0.0,0.0
2.7394029809947824,1789615008.8849454,control,pre_takeoff_hold,1,1,0.0005206640053074807,3.8217010498046875,3821.0,0,20.0,2.6738820650061825,3.8217010498046875,1,1,0,1.0352458102923032,-0.22562161087989807,0.4127051532268524,0.04282747954130173,0.00034275453072041273,-0.0005435110651887953,0.0002965466119349003,0.3790636956691742,-0.282937616109848,-0.5877745747566223,-0.015435411594808102,-0.027220234274864197,-0.027438871562480927,0.0031084632714120015,0.013898523560935825,-1.1831524916730047,-0.22559845447540283,0.4126961827278137,0.04282157123088837,-1.1826553744901271,0.0,0.0,0.0,-2.3156404495239258e-05,8.970499038696289e-06,5.908310413360596e-06,0.0027191405954355096,-0.002589224640130212,0.0007572166799318964,0.0,0.0,0.0,0.0031084632714120015,0.013898523560935825,-1.1831524916730047,0.0,0.0,0.0,0.0,0.0,0.0,zero,0.0,0.0,0.0,0.0,0.00039495224682267694,-0.001006904328429261,-0.0005360249440534054,0.008061333060278734,0.005712444967168114,0.0033516247415109218,1,0.002131938934326172,-0.22489506006240845,0.4118639826774597,0.042024996131658554,0.0027191405954355096,-0.002589224640130212,0.0007572166799318964,0.08256607667610505,-0.11866926926595267,0.015958370176466556,1,0.016609825994237326,1.0,0.0027191405954355096,-0.002589224640130212,0.0007572166799318964,0.08256607667610505,-0.11866926926595267,0.015958370176466556,0.08256607667610505,-0.11866926926595267,0.015958370176466556,2.7394029809947824,4,radio://0/80/2M/E7E7E7E704,2.0943951023931953,pre_takeoff_hold,,0.0,0.0,0.0,0,0.0,,0.0013709207148165027,1,0,0.0,fresh,0.0,0.0,0.0,0.0,0.0,0.0,0,0.942,0.0,0.0,0.0
2.7822287999879336,1789615008.9274552,control,pre_takeoff_hold,1,1,0.00344043699442409,3.8850440979003906,3885.0,0,40.0,2.6835297389916377,3.8850440979003906,1,1,0,0.9956643740776344,-0.1909630447626114,-0.3262213468551636,0.03915764018893242,-0.0014408135320991278,-0.00033503101440146565,-0.000981395598500967,0.06651768088340759,-0.04531959816813469,0.008289925754070282,-0.006323694251477718,-0.020690668374300003,-0.029069900512695312,-0.010619989245726706,-0.03884313779276776,0.9641719545172869,-0.1909085065126419,-0.32618632912635803,0.039205458015203476,0.9650901781171279,0.0,0.0,0.0,-5.453824996948242e-05,-3.501772880554199e-05,-4.781782627105713e-05,-0.003700649318328077,-0.006711928709347648,-0.00028437426701106365,0.0,0.0,0.0,-0.010619989245726706,-0.03884313779276776,0.9641719545172869,0.0,0.0,0.0,0.0,0.0,0.0,zero,0.0,0.0,0.0,0.0,-0.00013990743874123246,-0.0003961985424837729,-0.0008416081732993757,0.0024447537845653008,-0.0019552600098802658,0.00938973996586312,1,0.004976749420166016,-0.19004859030246735,-0.3260844647884369,0.038994200527668,-0.003700649318328077,-0.006711928709347648,-0.00028437426701106365,-0.043308693352099005,-0.066054669675697,-0.0059115909599381025,1,0.006222394993528724,1.0,-0.003700649318328077,-0.006711928709347648,-0.00028437426701106365,-0.043308693352099005,-0.066054669675697,-0.0059115909599381025,-0.043308693352099005,-0.066054669675697,-0.0059115909599381025,2.7822287999879336,5,radio://0/80/2M/E7E7E7E705,4.1887902047863905,pre_takeoff_hold,,0.0,0.0,0.0,0,0.0,,0.0009389761353426027,1,0,0.0,fresh,0.0,0.0,0.0,0.0,0.0,0.0,0,0.921,0.0,0.0,0.0
2.8392594600009033,1789615008.984134,control,pre_takeoff_hold,1,1,0.0005802510131616145,4.191202640533447,4191.0,0,90.0,2.8044051750039216,4.191202640533447,1,1,0,1.0682375403901139,0.2695245146751404,-0.014622659422457218,0.04634714871644974,-0.0006517207366414368,0.0005279105971567333,0.0002524780575186014,0.008660877123475075,0.003588026389479637,0.06478724628686905,-0.030039992183446884,0.015197573229670525,0.007736717350780964,-0.05682925748720181,0.05317863870099025,-2.895375908882572,0.2695632576942444,-0.014661469496786594,0.046283792704343796,-2.894952985407516,0.0,0.0,0.0,-3.8743019104003906e-05,3.881007432937622e-05,6.335601210594177e-05,-0.0056355811451989386,0.016422987037678353,0.00021162757935153675,0.0,0.0,0.0,-0.05682925748720181,0.05317863870099025,-2.895375908882572,0.0,0.0,0.0,0.0,0.0,0.0,zero,0.0,0.0,0.0,0.0,0.00022305090623091336,0.0002491633272138732,0.0004479133685672562,0.012611355719669435,-0.002430708061744641,0.008717168715166994,1,0.001338958740234375,0.2688926160335541,-0.013641050085425377,0.046003445982933044,-0.0056355811451989386,0.016422987037678353,0.00021162757935153675,0.004306050065072188,0.03495347352531158,0.0047406311282882025,1,0.011257895006565377,1.0,-0.0056355811451989386,0.016422987037678353,0.00021162757935153675,0.004306050065072188,0.03495347352531158,0.0047406311282882025,0.004306050065072188,0.03495347352531158,0.0047406311282882025,2.8392594600009033,2,radio://0/80/2M/E7E7E7E702,0.0,pre_takeoff_hold,,0.0,0.0,0.0,0,0.0,,0.0012169570053266277,1,0,0.0,fresh,0.0,0.0,0.0,0.0,0.0,0.0,0,1.066,0.0,0.0,0.0
2.8822545419970993,1789615009.0271056,control,pre_takeoff_hold,1,1,0.0037769900081912056,3.8217010498046875,3821.0,0,20.0,2.8167336260084994,3.8217010498046875,1,1,0,1.0352458102923032,-0.22562240064144135,0.41270092129707336,0.04280875250697136,0.00046998728066682816,-0.00010593002662062645,0.0003924037446267903,0.028413936495780945,-0.01733730360865593,-0.01196514442563057,0.007189862430095673,-0.0005822870880365372,-0.0012790209148079157,0.004264029979348382,0.013703317614777511,-1.1822015384759499,-0.22559845447540283,0.4126961827278137,0.04282157123088837,-1.1826553744901271,0.0,0.0,0.0,-2.3946166038513184e-05,4.738569259643555e-06,-1.2818723917007446e-05,0.007800252122099232,-0.01049125888023273,0.001998285354512297,0.0,0.0,0.0,0.004264029979348382,0.013703317614777511,-1.1822015384759499,0.0,0.0,0.0,0.0,0.0,0.0,zero,0.0,0.0,0.0,0.0,0.00010077667779213214,0.00019304371969787047,-1.1469697616730138e-05,0.010703063378973298,0.009531751635060048,-0.0004717442573301736,1,0.004590511322021484,-0.22494161128997803,0.41191837191581726,0.042015448212623596,0.007800252122099232,-0.01049125888023273,0.001998285354512297,0.013964669006882074,-0.024487413369177452,0.00946694058758482,1,0.00014877099602017552,1.0,0.007800252122099232,-0.01049125888023273,0.001998285354512297,0.013964669006882074,-0.024487413369177452,0.00946694058758482,0.013964669006882074,-0.024487413369177452,0.00946694058758482,2.8822545419970993,4,radio://0/80/2M/E7E7E7E704,2.0943951023931953,pre_takeoff_hold,,0.0,0.0,0.0,0,0.0,,0.0013058290005206492,1,0,0.0,fresh,0.0,0.0,0.0,0.0,0.0,0.0,0,0.942,0.0,0.0,0.0
2.9251168579939986,1789615009.0701988,control,pre_takeoff_hold,1,1,0.006133753995527513,3.8850440979003906,3885.0,0,40.0,2.8264177969977027,3.8850440979003906,1,1,0,0.9956643740776344,-0.190932497382164,-0.32615524530410767,0.03919956088066101,-0.0004965669941157103,0.0005271222325973213,-0.00026548595633357763,-0.00581433717161417,0.0038063442334532738,-0.0068444968201220036,0.012986126355826855,0.00246448814868927,-0.012019401416182518,-0.009611498383847589,-0.03748298623391706,0.964966397488008,-0.1909085065126419,-0.32618632912635803,0.039205458015203476,0.9650901781171279,0.0,0.0,0.0,-2.3990869522094727e-05,3.108382225036621e-05,-5.89713454246521e-06,-0.006826611023563545,-0.012169850345659258,-0.0015715170598215118,0.0,0.0,0.0,-0.009611498383847589,-0.03748298623391706,0.964966397488008,0.0,0.0,0.0,0.0,0.0,0.0,zero,0.0,0.0,0.0,0.0,2.6969942992202552e-05,-0.00015175565521877648,-5.901313640473718e-05,-0.0029617392413701323,0.00717347392414273,0.02301102132147742,1,0.007582664489746094,-0.19009585678577423,-0.326164573431015,0.038977961987257004,-0.006826611023563545,-0.012169850345659258,-0.0015715170598215118,-0.01484880549949596,-0.02219788882656314,-0.0057214028633699775,1,0.005787162997876294,1.0,-0.006826611023563545,-0.012169850345659258,-0.0015715170598215118,-0.01484880549949596,-0.02219788882656314,-0.0057214028633699775,-0.01484880549949596,-0.02219788882656314,-0.0057214028633699775,2.9251168579939986,5,radio://0/80/2M/E7E7E7E705,4.1887902047863905,pre_takeoff_hold,,0.0,0.0,0.0,0,0.0,,0.0008655406235624709,1,0,0.0,fresh,0.0,0.0,0.0,0.0,0.0,0.0,0,0.921,0.0,0.0,0.0
2.982253297988791,1789615009.126916,control,pre_takeoff_hold,1,1,0.0020078249945072457,4.191202640533447,4191.0,0,90.0,2.9473990129918093,4.191202640533447,1,1,0,1.0682375403901139,0.26955580711364746,-0.01464042253792286,0.04629819840192795,0.0003767233865801245,0.00018662353977560997,-0.0004810077662114054,0.007148428354412317,0.004085959866642952,-0.008955568075180054,-0.028332680463790894,-0.002721365774050355,-0.0021829763427376747,-0.056936850260879836,0.05219866961484803,-2.895661946000681,0.2695632576942444,-0.014661469496786594,0.046283792704343796,-2.894952985407516,0.0,0.0,0.0,-7.450580596923828e-06,2.10469588637352e-05,1.4405697584152222e-05,-0.003814381353843187,0.016804671485052325,0.00045771877489224615,0.0,0.0,0.0,-0.056936850260879836,0.05219866961484803,-2.895661946000681,0.0,0.0,0.0,0.0,0.0,0.0,zero,0.0,0.0,0.0,0.0,0.00012109595497689549,-0.00036186705887154147,0.00018182443201811147,0.006507604964874817,-0.01193720113136605,0.002787491066721099,1,0.002780437469482422,0.2689618468284607,-0.013782856985926628,0.0460050031542778,-0.003814381353843187,0.016804671485052325,0.00045771877489224615,0.012997140452917432,-0.012924929685537125,0.0002803878238059095,1,0.0090256120020058,1.0,-0.003814381353843187,0.016804671485052325,0.00045771877489224615,0.012997140452917432,-0.012924929685537125,0.0002803878238059095,0.012997140452917432,-0.012924929685537125,0.0002803878238059095,2.982253297988791,2,radio://0/80/2M/E7E7E7E702,0.0,pre_takeoff_hold,,0.0,0.0,0.0,0,0.0,,0.0010835916895188785,1,0,0.0,fresh,0.0,0.0,0.0,0.0,0.0,0.0,0,1.066,0.0,0.0,0.0
3.0251685739931418,1789615009.1700509,control,pre_takeoff_hold,1,1,0.006357250997098163,3.8217010498046875,3821.0,0,20.0,2.959647658004542,3.8217010498046875,1,1,0,1.0352458102923032,-0.22560974955558777,0.4126947522163391,0.04281076043844223,0.0003396582615096122,-0.0005010421155020595,-7.375093991868198e-05,0.006009532138705254,-0.012709523551166058,-0.00354195199906826,0.017435235902667046,0.017581138759851456,0.013488603755831718,0.004813589286959843,0.01455402704385326,-1.1813804935308532,-0.22559845447540283,0.4126961827278137,0.04282157123088837,-1.1826553744901271,0.0,0.0,0.0,-1.1295080184936523e-05,-1.430511474609375e-06,-1.0810792446136475e-05,0.009493000758999122,-0.013550964040512658,0.002662605078368584,0.0,0.0,0.0,0.004813589286959843,0.01455402704385326,-1.1813804935308532,0.0,0.0,0.0,0.0,0.0,0.0,zero,0.0,0.0,0.0,0.0,-0.00019786085520713835,-1.0253249887430445e-05,-0.00012645656869338787,0.02095265857474692,0.0028850288031656668,5.680884497410425e-05,1,0.007439136505126953,-0.2248040735721588,0.4117259681224823,0.042051978409290314,0.009493000758999122,-0.013550964040512658,0.002662605078368584,0.012232542060535133,-0.021719460991206554,0.003825738077417424,1,0.015307612004107796,1.0,0.009493000758999122,-0.013550964040512658,0.002662605078368584,0.012232542060535133,-0.021719460991206554,0.003825738077417424,0.012232542060535133,-0.021719460991206554,0.003825738077417424,3.0251685739931418,4,radio://0/80/2M/E7E7E7E704,2.0943951023931953,pre_takeoff_hold,,0.0,0.0,0.0,0,0.0,,0.0014708523306396456,1,0,0.0,fresh,0.0,0.0,0.0,0.0,0.0,0.0,0,0.942,0.0,0.0,0.0
3.0678757699934067,1789615009.2135153,control,pre_takeoff_hold,1,1,0.00921765499515459,3.8850440979003906,3885.0,0,40.0,2.969176708997111,3.8850440979003906,1,1,0,0.9956643740776344,-0.19094085693359375,-0.3261699974536896,0.039226096123456955,-0.001268988591618836,0.0006329438765533268,0.0006645090179517865,-0.031022384762763977,0.009279245510697365,0.01461486890912056,-0.002935608848929405,0.002867685630917549,-0.013395559042692184,-0.010470060247945253,-0.03775614061757582,0.9647962111753504,-0.1909085065126419,-0.32618632912635803,0.039205458015203476,0.9650901781171279,0.0,0.0,0.0,-3.235042095184326e-05,1.633167266845703e-05,2.0638108253479004e-05,-0.00874081881195435,-0.01461503290920976,-0.001924221258378473,0.0,0.0,0.0,-0.010470060247945253,-0.03775614061757582,0.9647962111753504,0.0,0.0,0.0,0.0,0.0,0.0,zero,0.0,0.0,0.0,0.0,0.00010778190931437441,0.00020400097040718028,0.00013552436488376043,0.0024477416083983103,0.014850926018674944,-0.012692168238928778,1,0.011053085327148438,-0.19020865857601166,-0.3263348639011383,0.03896436095237732,-0.00874081881195435,-0.01461503290920976,-0.001924221258378473,-0.017040659442723653,-0.015555361023296002,0.007967435041993251,1,0.007542898005340248,1.0,-0.00874081881195435,-0.01461503290920976,-0.001924221258378473,-0.017040659442723653,-0.015555361023296002,0.007967435041993251,-0.017040659442723653,-0.015555361023296002,0.007967435041993251,3.0678757699934067,5,radio://0/80/2M/E7E7E7E705,4.1887902047863905,pre_takeoff_hold,,0.0,0.0,0.0,0,0.0,,0.0007948589057942074,1,0,0.0,fresh,0.0,0.0,0.0,0.0,0.0,0.0,0,0.921,0.0,0.0,0.0
3.12509235899779,1789615009.2697566,control,pre_takeoff_hold,1,1,0.0063511400076095015,4.191202640533447,4191.0,0,90.0,3.0902380740008084,4.191202640533447,1,1,0,1.0682375403901139,0.2695810794830322,-0.014612914994359016,0.046329449862241745,0.0004202377167530358,0.0011301207123324275,0.0001596435031387955,0.0035527050495147705,0.025822805240750313,0.0027758567593991756,-0.023917008191347122,-0.003879224881529808,0.003117509186267853,-0.057274783744547676,0.05221849320794681,-2.895514765834769,0.2695632576942444,-0.014661469496786594,0.046283792704343796,-2.894952985407516,0.0,0.0,0.0,1.7821788787841797e-05,4.855450242757797e-05,4.565715789794922e-05,-0.001144729465278541,0.019182385193762322,0.0014463839492656109,0.0,0.0,0.0,-0.057274783744547676,0.05221849320794681,-2.895514765834769,0.0,0.0,0.0,0.0,0.0,0.0,zero,0.0,0.0,0.0,0.0,0.0002653605667766858,4.463909455262417e-05,-2.1851070486238785e-05,-0.0016025961222688508,-0.0026725277718751494,0.0018218010506986944,1,0.00741267204284668,0.26899826526641846,-0.01380093116313219,0.04601910710334778,-0.001144729465278541,0.019182385193762322,0.0014463839492656109,0.020295678002796805,0.02155360135137735,0.018443108077817922,1,0.008244782002293505,1.0,-0.001144729465278541,0.019182385193762322,0.0014463839492656109,0.020295678002796805,0.02155360135137735,0.018443108077817922,0.020295678002796805,0.02155360135137735,0.018443108077817922,3.12509235899779,2,radio://0/80/2M/E7E7E7E702,0.0,pre_takeoff_hold,,0.0,0.0,0.0,0,0.0,,0.0010465671413047682,1,0,0.0,fresh,0.0,0.0,0.0,0.0,0.0,0.0,0,1.066,0.0,0.0,0.0
3.1678773329913383,1789615009.3145857,control,takeoff,1,1,0.008178143994882703,3.8217010498046875,3821.0,0,20.0,3.1023564170027385,3.8217010498046875,1,1,0,1.0352458102923032,-0.2256166934967041,0.4126783311367035,0.042845219373703,0.00023960048565641046,-0.0008099235128611326,0.0011620237492024899,0.007106900215148926,-0.014514273032546043,0.026402156800031662,0.001138497143983841,-0.008380002342164516,-0.01050129160284996,0.0038166639098256056,0.013474902106570326,-1.1825592103354217,-0.22559845447540283,0.4126961827278137,0.042821653801299125,-1.1826553744901271,0.0,0.0,0.17280789094538748,-1.823902130126953e-05,-1.7851591110229492e-05,2.3565572403877466e-05,0.010566087292452422,-0.015430606202078315,0.0019335094614432618,-0.0031715138421288163,0.005884623669006517,0.45150171805387357,0.0015692764834497755,-0.014721344732949806,-1.182678475534758,0.0022470131933866066,0.028192711869461984,4.333136445408571e-05,0.004086206459413839,-0.032703050681149266,-6.015887390770414e-05,analytic,-0.00604873058743669,-0.1598074293142704,3.666227680985032e-05,0.4513705736659278,-4.9593285775982005e-05,-0.0003454878028550922,-0.00017265923615530178,0.0009445826503594892,0.0020444030251765355,0.005198044742210048,1,0.01200413703918457,-0.22478854656219482,0.4116874635219574,0.04203266650438309,0.010566087292452422,-0.015430606202078315,0.0019509821473988435,0.009427800529817135,-0.015412910535386756,-0.008545265638075124,1,0.017283783992752433,1.0,0.010566087292452422,-0.015430606202078315,0.0019509821473988435,0.009427800529817135,-0.015412910535386756,-0.008545265638075124,0.009427800529817135,-0.015412910535386756,-0.008545265638075124,3.1678773329913383,4,radio://0/80/2M/E7E7E7E704,2.0943951023931953,takeoff,,0.00029944209711991803,-0.0004379537376085563,5.515888691472884e-05,,,,0.0015257418328569728,1,0,0.0,fresh,0.0,0.0,0.0,0.0,0.0,0.0,0,0.942,0.0,0.0,0.0
3.2107943689916283,1789615009.3569605,control,takeoff,1,1,0.001588807994266972,3.8850440979003906,3885.0,0,40.0,3.1120953079953324,3.8850440979003906,1,1,0,0.9956643740776344,-0.19084954261779785,-0.32618334889411926,0.03915895149111748,0.0011657754657790065,0.0005576186813414097,-0.0002825218834914267,0.023596342653036118,0.011960813775658607,-0.0024408800527453423,0.01890682801604271,0.01482965238392353,0.020406533032655716,-0.009592683719853858,-0.03711128302266072,0.9666733546771739,-0.1909085065126419,-0.32618632912635803,0.03921081381528097,0.9650901781171279,0.0,0.0,0.16643850760341772,5.8963894844055176e-05,2.9802322387695312e-06,-5.18623241634944e-05,-0.010049103828844379,-0.015385504487566848,-0.0014598368850204265,0.0025245958219864005,0.003898941912821574,0.4128429343453477,-0.00034970325909564266,0.011245160879713952,0.9650862457304376,-0.009216922123008252,-0.04834434554946279,0.0013461833703585792,-0.005264175146347365,0.02463623911467644,-5.919899536989467e-05,analytic,0.02732698830539406,0.1952377188159777,-0.002279678576611051,0.4123687496100142,-8.339311693106495e-05,-0.00013602252846638585,-2.2460800458781566e-05,0.016893099293459727,0.010343474496514071,-0.011768555564811087,1,0.0039501190185546875,-0.19011305272579193,-0.32617276906967163,0.03898879140615463,-0.010049103828844379,-0.015385504487566848,-0.0011795006632703748,0.0018299776233475075,-0.009839062832954082,0.004929784406605783,1,0.008078265003859997,1.0,-0.010049103828844379,-0.015385504487566848,-0.0011795006632703748,0.0018299776233475075,-0.009839062832954082,0.004929784406605783,0.0018299776233475075,-0.009839062832954082,0.004929784406605783,3.2107943689916283,5,radio://0/80/2M/E7E7E7E705,4.1887902047863905,takeoff,,-0.0007181084542585525,-0.0010763497694029048,-0.00010097536777927969,,,,0.0007559654411590503,1,0,0.0,fresh,0.0,0.0,0.0,0.0,0.0,0.0,0,0.921,0.0,0.0,0.0
3.267848920993856,1789615009.4133093,control,takeoff,1,1,0.009152740996796638,4.191202640533447,4191.0,0,90.0,3.2329946359968744,4.191202640533447,1,1,0,1.0682375403901139,0.26962950825691223,-0.01460303645581007,0.04646702855825424,0.00160176120698452,0.0009872200898826122,0.0020819210913032293,0.02878442406654358,0.012588339857757092,0.02784319408237934,0.0020218854770064354,-0.055966973304748535,0.008113979361951351,-0.05628578805152547,0.04938000777542313,-2.8949825446008997,0.2695632576942444,-0.014661469496786594,0.046326085994313725,-2.894952985407516,0.0,0.0,0.15809312787257368,6.625056266784668e-05,5.843304097652435e-05,0.00014094256394051735,0.00081220464628569,0.015116032527880413,0.0018461002211138135,-0.00040540441725816817,-0.007821315213423908,0.4256703920474128,-0.017584001449103576,0.005407823064008154,-2.8950480859141434,-0.03867521897091063,0.04391739219895629,0.0016883555885023542,0.14359117363026797,0.006411658182886746,0.0007766432950877091,analytic,0.2805876596935214,-0.15010832910251423,0.0038710868018667862,0.4250128285799216,0.00026774720775461894,0.0003920019581937836,0.0008808129639093774,0.019127417190354087,0.0182821641795927,0.03918748776544414,1,0.010741472244262695,0.2690533399581909,-0.013910605572164059,0.04606105759739876,0.00081220464628569,0.015116032527880413,0.002948604713594106,0.03696219119766882,-0.16862609560657907,0.013862713998030376,1,0.011254696000833064,1.0,0.00081220464628569,0.015116032527880413,0.002948604713594106,0.03696219119766882,-0.16862609560657907,0.013862713998030376,0.03696219119766882,-0.16862609560657907,0.013862713998030376,3.267848920993856,2,radio://0/80/2M/E7E7E7E702,0.0,takeoff,,-2.4438988928193274e-05,0.00243818948786332,0.0002661211308977556,,,,0.0009880500281545129,1,0,0.0,fresh,0.0,0.0,0.0,0.0,0.0,0.0,0,1.066,0.0,0.0,0.0
3.3108210889913607,1789615009.4575682,control,takeoff,1,1,0.010527833001106046,3.8217010498046875,3821.0,0,20.0,3.245300173002761,3.8217010498046875,1,1,0,1.0352458102923032,-0.22574114799499512,0.4128285348415375,0.04314103722572327,-0.00203084503300488,-0.003372729755938053,0.011747371405363083,0.08122363686561584,-1.2817835807800293,1.5558632612228394,0.08248008787631989,-0.001956772059202194,-0.15267141163349152,0.005050190686183005,0.013692454695258698,-1.1869201569005392,-0.22559845447540283,0.4126961827278137,0.042930853860699864,-1.1826553744901271,0.0,0.0,0.15189965047889872,-0.00014269351959228516,0.00013235211372375488,0.00021018336502340307,0.0047022198376257185,-0.011034198800789867,0.0025392416733416375,-0.0014039818151879316,0.004213010361540942,0.4522393658348192,-0.0006522197549255766,-0.009797557923969026,-1.1826489844306267,0.005709884101901609,0.02347820129208114,-0.004322478017425101,-0.04248315747813944,0.09705797337004131,0.0004162446035377688,analytic,-0.06872223624154034,-0.01023683835593033,0.0075622206771410756,0.4521291271893704,-0.0005498222150573623,-0.0021565475122234876,0.003945039715120148,0.013389416519884697,-0.16298604532210942,0.23413913347971385,1,0.014764785766601562,-0.22497697174549103,0.4118845760822296,0.04211428016424179,0.0047022198376257185,-0.011034198800789867,0.004602238918428188,-0.12150719516840322,0.10169998859163168,0.07183080974357003,1,0.0011491240002214909,1.0,0.0047022198376257185,-0.011034198800789867,0.004602238918428188,-0.12150719516840322,0.10169998859163168,0.07183080974357003,-0.12150719516840322,0.10169998859163168,0.07183080974357003,3.3108210889913607,4,radio://0/80/2M/E7E7E7E704,2.0943951023931953,takeoff,,0.0016797757245710025,-0.0026083249093081413,0.00023391418947128138,,,,0.0015903627079638934,1,0,0.0,fresh,0.0,0.0,0.0,0.0,0.0,0.0,0,0.942,0.0,0.0,0.0
3.3536155319889076,1789615009.5016077,control,takeoff,1,1,0.004697691998444498,3.8850440979003906,3885.0,0,40.0,3.2549164709926117,3.8850440979003906,1,1,0,0.9956643740776344,-0.19066180288791656,-0.3257060945034027,0.041451919823884964,0.005058232694864273,0.007534272503107786,0.03812641650438309,0.41713452339172363,0.7374348640441895,0.7119993567466736,0.08038792759180069,0.2906809449195862,0.09927904605865479,-0.009952326570047692,-0.019225026268073445,0.9718840674748727,-0.1909085065126419,-0.32618632912635803,0.03942848552395765,0.9650901781171279,0.0,0.0,0.1458104054354985,0.0002467036247253418,0.00048023462295532227,0.0020234342999273167,-0.019850037531838716,-0.00914022287770029,0.014811036219327488,0.00499886990210319,0.002234794900038501,0.4071256420427409,0.006969223920366238,0.011502252166950885,0.9651703394181347,-0.016890641368566293,-0.030730978958504365,0.006666766307985655,0.09168625721944053,-0.0021815555991531194,0.0010546705742839806,analytic,0.15186498687491226,0.10863373620152819,-0.015266166782601146,0.4069120422203395,0.0060098978504593194,0.01617508019079819,0.011968662160185196,-0.03670593742951833,-0.10384275253418906,0.5270917571917194,1,0.008649349212646484,-0.19031347334384918,-0.32508888840675354,0.04065607860684395,-0.019850037531838716,-0.00914022287770029,0.0181093426647346,-0.07561694118119305,0.10929030265455929,0.5694408976646042,1,-0.0012390629999572411,1.0,-0.019850037531838716,-0.00914022287770029,0.0181093426647346,-0.07561694118119305,0.10929030265455929,0.5694408976646042,-0.07561694118119305,0.10929030265455929,0.5694408976646042,3.3536155319889076,5,radio://0/80/2M/E7E7E7E705,4.1887902047863905,takeoff,,-0.002700839380672963,-0.0030287544450932832,2.2410836261731843e-05,,,,0.0010656641496045649,1,0,0.0,fresh,0.0,0.0,0.0,0.0,0.0,0.0,0,0.921,0.0,0.0,0.0
3.4108369479945395,1789615009.5562775,control,takeoff,1,1,0.0007213030039565638,4.191202640533447,4191.0,0,90.0,3.375982662997558,4.191202640533447,1,1,0,1.0682375403901139,0.27017199993133545,-0.013464422896504402,0.06959833949804306,0.0007502349908463657,0.013321230188012123,0.23829427361488342,0.0894143357872963,0.19603972136974335,2.662250518798828,0.34056732058525085,-0.08325016498565674,0.09756477177143097,-0.005928834858574302,0.024381499838664573,-2.8844593007530337,0.2695632576942444,-0.014661469496786594,0.04675248088886655,-2.894952985407516,0.0,0.0,0.13779092408488605,0.0006087422370910645,0.0011970466002821922,0.02284585860917651,0.01727343174587904,-0.012164873333631435,0.1342778830391589,-0.008776576364924347,0.003914541617336542,0.36842888318114253,0.016121392897980417,0.020498498505486712,-2.894622515583594,-0.022275771811512607,0.003934377132278249,0.01013991280617653,0.0537695345933597,0.25680631496039563,0.0011024923923508535,analytic,0.13822064552382757,0.2390883149611401,-0.013565430293056588,0.36845988685206543,0.003495246500741872,0.010256413064647543,0.18741277914684346,-0.1705487862628793,0.09844298516658781,1.5961154885172546,1,0.0020079612731933594,0.2702977657318115,-0.014072303660213947,0.05953836441040039,0.01727343174587904,-0.012164873333631435,0.13964327105043395,0.12713220216538448,0.058685815668645024,2.140685219822499,1,0.02352001200779341,1.0,0.01727343174587904,-0.012164873333631435,0.13964327105043395,0.12713220216538448,0.058685815668645024,2.140685219822499,0.12713220216538448,0.058685815668645024,2.140685219822499,3.4108369479945395,2,radio://0/80/2M/E7E7E7E702,0.0,takeoff,,0.0013674385036511964,0.0016546660814648986,0.008220124315229345,,,,0.010079108830816771,1,0,0.0,fresh,0.0,0.0,0.0,0.0,0.0,0.0,0,1.066,0.0,0.0,0.0
3.45366774899594,1789615009.599341,control,takeoff,1,1,0.002690905996132642,3.8217010498046875,3821.0,0,20.0,3.3881468330073403,3.8217010498046875,1,1,0,1.0352458102923032,-0.22654081881046295,0.41211649775505066,0.06155580282211304,-0.006106529850512743,-0.0048839678056538105,0.1699611246585846,-0.014315912500023842,-0.04355047643184662,1.3267892599105835,-0.025592204183340073,0.01416504755616188,-0.007393049541860819,0.0011294514043498924,0.017505311771957393,-1.1891350411551818,-0.22559845447540283,0.4126961827278137,0.04355866872115792,-1.1826553744901271,0.0,0.0,0.13188005221927762,-0.0009423643350601196,-0.0005796849727630615,0.017997134100955117,-0.014169894031501287,-0.0012945578525949423,0.13888013662051263,0.004599219140809357,0.0008489494852738817,0.39568769942312,-0.011570266849043925,0.002412835368156061,-1.182683292857936,0.012762766479673155,0.015124910474538247,-0.006372197516900709,-0.1149138150845612,0.08980877734664575,-0.0002772872155529326,analytic,-0.1734470190111125,0.018825560733793358,0.010002025231596963,0.3956378387970114,-0.006923833704099968,-0.0045667844504256195,0.1328398399672076,0.01668415719323329,0.0028336248877737515,1.3467231479341932,1,0.0043566226959228516,-0.22614812850952148,0.4119916558265686,0.05702294781804085,-0.014169894031501287,-0.0012945578525949423,0.14608944286727493,-0.14006221859070195,0.04649931693071161,1.6263217923495523,1,0.013729194004554302,1.0,-0.014169894031501287,-0.0012945578525949423,0.14608944286727493,-0.14006221859070195,0.04649931693071161,1.6263217923495523,-0.14006221859070195,0.04649931693071161,1.6263217923495523,3.45366774899594,4,radio://0/80/2M/E7E7E7E704,2.0943951023931953,takeoff,,0.000956493422169215,-0.003398537109068552,0.009044529677651816,,,,0.004551545415296096,1,0,0.0,fresh,0.0,0.0,0.0,0.0,0.0,0.0,0,0.942,0.0,0.0,0.0
3.496407927988912,1789615009.6435955,control,takeoff,1,1,0.006022443994879723,3.8850440979003906,3885.0,0,40.0,3.397708866992616,3.8850440979003906,1,1,0,0.9956643740776344,-0.19082963466644287,-0.3241606056690216,0.06681520491838455,0.000503684626892209,0.012047391384840012,0.21875040233135223,0.015855615958571434,0.06779711693525314,1.3868060111999512,0.1659155786037445,-0.10913081467151642,0.1676657795906067,0.005054420046975824,-0.025851710727748934,0.9918666566624387,-0.1909085065126419,-0.32618632912635803,0.04029431892223132,0.9650901781171279,0.0,0.0,0.12606002513954856,7.887184619903564e-05,0.0020257234573364258,0.02652088599615323,-0.012736355134587537,0.014334932438736686,0.20385231751153687,0.0034173928856142386,-0.0042936614731385525,0.32801948063645264,0.01601617248867352,-0.004828169805124936,0.9650128430045929,-0.01054652270987104,-0.020733923424943283,0.02706550699419525,0.07164881847527016,-0.1622684701949177,-0.0003459797240251255,analytic,0.1061305381061405,-0.0863704263041313,-0.05868048252204688,0.327976589918398,-0.0003900356306580272,0.010119805212976568,0.18263370597066286,0.028179872436668106,0.019939679927512135,1.376188736924811,1,0.009430646896362305,-0.1901904195547104,-0.3237174451351166,0.06602251529693604,-0.012736355134587537,0.014334932438736686,0.21314282383936575,0.09431745919749135,0.16700703620105162,1.565511507657536,1,0.0009306540014222264,1.0,-0.012736355134587537,0.014334932438736686,0.21314282383936575,0.09431745919749135,0.16700703620105162,1.565511507657536,0.09431745919749135,0.16700703620105162,1.565511507657536,3.496407927988912,5,radio://0/80/2M/E7E7E7E705,4.1887902047863905,takeoff,,-0.005297056808939376,-0.002817509772538365,0.013685734751344564,,,,0.001110560243224272,1,0,0.0,fresh,0.0,0.0,0.0,0.0,0.0,0.0,0,0.921,0.0,0.0,0.0
3.5536688049905933,1789615009.698825,control,takeoff,1,1,0.003757906990358606,4.191202640533447,4191.0,0,90.0,3.5188145199936116,4.191202640533447,1,1,0,1.0682375403901139,0.26805368065834045,-0.008920992724597454,0.12411446869373322,-0.019425632432103157,0.031097950413823128,0.3994680345058441,-0.14545513689517975,0.03102407045662403,0.8549425005912781,-0.6818117499351501,0.06581667065620422,0.10615182667970657,-0.06940117035901658,0.04826413063798813,-2.869485219655763,0.2695632576942444,-0.014661469496786594,0.04799283402537247,-2.894952985407516,0.0,0.0,0.11838533375868834,-0.0015095770359039307,0.00574047677218914,0.07612163466836075,-0.0014285417711777213,0.029594898999177943,0.3880891787909967,0.0005648850828468448,-0.019047498559861657,0.24720882498325897,-0.07514499918709665,0.016500637892591097,-2.8961952079876907,0.00487676759627699,0.02974226070033841,0.02891253998401435,-0.5075437975876302,-0.25983615797427984,-0.008399259763747644,analytic,-0.5276350874859301,-0.3532296135917371,-0.08165669849805526,0.3,-0.014838176849769392,0.033867053647090126,0.39340741529756074,-0.14030818375134266,0.02585532975530185,0.506937138562478,1,0.0047833919525146484,0.2681497037410736,-0.009087798185646534,0.1155339851975441,-0.0014285417711777213,0.029594898999177943,0.4005270313792356,-0.20089524865983174,0.09334896638803597,0.4436929158323133,1,0.0068381229939404875,1.0,-0.0014285417711777213,0.029594898999177943,0.4005270313792356,-0.20089524865983174,0.09334896638803597,0.4436929158323133,-0.20089524865983174,0.09334896638803597,0.4436929158323133,3.5536688049905933,2,radio://0/80/2M/E7E7E7E702,0.0,takeoff,,0.0030253537277776946,0.00356109107772431,0.05424792344361133,,,,0.008582641873142977,1,0,0.0,fresh,0.0,0.0,0.0,0.0,0.0,0.0,0,1.066,0.0,0.0,0.0
